onset	duration	section	btype	validity	stim	gender	accuracy	reaction_time
10.0550100423679	0.5	cue	Exp	Inval	CueName2	Fem	1	0.836260282507283
10.5720385255845	3.93644419576231	Jitter1	Exp	Inval	CueName2	Fem	1	0.836260282507283
14.4914542381302	0.5	target	Exp	Inval	Face	Fem	1	0.836260282507283
15.0083583479427	2.51842789744114	Jitter2	Exp	Inval	Face	Fem	1	0.836260282507283
17.5436028384429	0.5	cue	Exp	Inval	CueFace2	Fem	1	0.807195613178919
18.0606350215567	4.6369336919015	Jitter1	Exp	Inval	CueFace2	Fem	1	0.807195613178919
22.6805365303444	0.5	target	Exp	Inval	Word	Fem	1	0.807195613178919
23.1974844696888	2.51835902246603	Jitter2	Exp	Inval	Word	Fem	1	0.807195613178919
25.732707330033	0.5	cue	Exp	Val	CueFace2	Mas	1	0.682680477333633
26.2497358132496	4.62023435705487	Jitter1	Exp	Val	CueFace2	Mas	1	0.682680477333633
30.8529416870879	0.5	target	Exp	Val	Face	Mas	1	0.682680477333633
31.3698825112479	5.31833357857249	Jitter2	Exp	Val	Face	Mas	1	0.682680477333633
36.7070118422234	0.5	cue	Exp	Val	CueName2	Fem	1	0.674626374617219
37.2240824473265	6.03795565988912	Jitter1	Exp	Val	CueName2	Fem	1	0.674626374617219
43.2449675021126	0.5	target	Exp	Val	Word	Fem	1	0.674626374617219
43.7618613660634	6.01837083366991	Jitter2	Exp	Val	Word	Fem	1	0.674626374617219
49.7829126315264	0.5	cue	Exp	Val	CueName2	Mas	1	0.640665320854168
50.2999536374664	3.23592680810179	Jitter1	Exp	Val	CueName2	Mas	1	0.640665320854168
53.5188394396282	0.5	target	Exp	Val	Word	Mas	1	0.640665320854168
54.0357361496535	3.21828129620553	Jitter2	Exp	Val	Word	Mas	1	0.640665320854168
57.2714652979703	0.5	cue	Exp	Val	CueName2	Fem	1	0.732553642079438
57.7884880890415	2.53544158107252	Jitter1	Exp	Val	CueName2	Fem	1	0.732553642079438
60.3069068790428	0.5	target	Exp	Val	Word	Fem	1	0.732553642079438
60.8238314805858	4.61845029603501	Jitter2	Exp	Val	Word	Fem	1	0.732553642079438
65.460580035422	0.5	cue	Exp	Inval	CueFace2	Fem	1	0.770862357352598
65.977565542933	3.23595242276133	Jitter1	Exp	Inval	CueFace2	Fem	1	0.770862357352598
69.1965324581834	0.5	target	Exp	Inval	Word	Fem	1	0.770862357352598
69.7133924538648	6.01837737963433	Jitter2	Exp	Inval	Word	Fem	1	0.770862357352598
75.7344516883313	0.5	cue	Exp	Val	CueName2	Mas	1	0.516943954840826
76.2514804561542	2.53543873500166	Jitter1	Exp	Val	CueName2	Mas	1	0.516943954840826
78.769890423333	0.5	target	Exp	Val	Word	Mas	1	0.516943954840826
79.2867868487483	5.318280641608	Jitter2	Exp	Val	Word	Mas	1	0.516943954840826
84.6240206306138	0.5	cue	Exp	Val	CueFace2	Mas	1	0.870032926221029
85.14102036849	6.02122046452132	Jitter1	Exp	Val	CueFace2	Mas	1	0.870032926221029
91.1452410951351	0.5	target	Exp	Val	Face	Mas	1	0.870032926221029
91.6621343898696	6.01841153251735	Jitter2	Exp	Val	Face	Mas	1	0.870032926221029
97.6831608944958	0.5	cue	Exp	Inval	CueFace2	Mas	1	0.710618101653381
98.2001563632621	5.33742432646977	Jitter1	Exp	Inval	CueFace2	Mas	1	0.710618101653381
103.520585220966	0.5	target	Exp	Inval	Word	Mas	1	0.710618101653381
104.037494169108	4.61818276514532	Jitter2	Exp	Inval	Word	Mas	1	0.710618101653381
108.674162180068	0.5	cue	Exp	Val	CueFace2	Fem	1	0.63701380886414
109.19123050831	3.23598543721164	Jitter1	Exp	Val	CueFace2	Fem	1	0.63701380886414
112.41014761728	0.5	target	Exp	Val	Face	Fem	1	0.63701380886414
112.927051727096	4.61837117519826	Jitter2	Exp	Val	Face	Fem	1	0.63701380886414
117.563768975124	0.5	cue	Exp	Inval	CueName2	Fem	1	0.77004069600298
118.080824496039	6.02125177132621	Jitter1	Exp	Inval	CueName2	Fem	1	0.77004069600298
124.08502074645	0.5	target	Exp	Inval	Face	Fem	1	0.77004069600298
124.601911195114	3.91835953475675	Jitter2	Exp	Inval	Face	Fem	1	0.77004069600298
128.53812983957	0.5	cue	Exp	Val	CueName2	Mas	1	0.730883850894315
129.055164584148	6.03796305967626	Jitter1	Exp	Val	CueName2	Mas	1	0.730883850894315
135.076092899246	0.5	target	Exp	Val	Word	Mas	1	0.730883850894315
135.592955171782	4.61837658273726	Jitter2	Exp	Val	Word	Mas	1	0.730883850894315
140.229658474054	0.5	cue	Exp	Val	CueName2	Fem	1	0.652869282985193
140.746691795594	3.93639723555316	Jitter1	Exp	Val	CueName2	Fem	1	0.652869282985193
144.666055709607	0.5	target	Exp	Val	Word	Fem	1	0.652869282985193
145.183019017746	3.21838660091453	Jitter2	Exp	Val	Word	Fem	1	0.652869282985193
148.418740481662	0.5	cue	Exp	Val	CueFace2	Fem	1	0.672395337791386
148.935775795453	3.91978185986954	Jitter1	Exp	Val	CueFace2	Fem	1	0.672395337791386
152.838522341532	0.5	target	Exp	Val	Face	Fem	1	0.672395337791386
153.35541535166	5.31837086212909	Jitter2	Exp	Val	Face	Fem	1	0.672395337791386
158.692624941905	0.5	cue	Exp	Val	CueName2	Mas	1	0.669732551650668
159.209665378628	3.93644647261681	Jitter1	Exp	Val	CueName2	Mas	1	0.669732551650668
163.129071414522	0.5	target	Exp	Val	Word	Mas	1	0.669732551650668
163.645968124547	2.51828018623564	Jitter2	Exp	Val	Word	Mas	1	0.669732551650668
166.181176754526	0.5	cue	Exp	Inval	CueName2	Mas	1	0.72926272757104
166.698207229994	4.62032656982774	Jitter1	Exp	Inval	CueName2	Mas	1	0.72926272757104
171.301503324354	0.5	target	Exp	Inval	Face	Mas	1	0.72926272757104
171.818362181606	3.21826649662398	Jitter2	Exp	Inval	Face	Mas	1	0.72926272757104
175.054099868139	0.5	cue	Exp	Val	CueFace2	Fem	1	0.760408445665234
175.571125505285	4.62026395621797	Jitter1	Exp	Val	CueFace2	Fem	1	0.760408445665234
180.174363824357	0.5	target	Exp	Val	Face	Fem	1	0.760408445665234
180.691252280772	3.21836838604577	Jitter2	Exp	Val	Face	Fem	1	0.760408445665234
183.926994236415	0.5	cue	Exp	Val	CueName2	Fem	1	0.765743979205581
184.44397519021	6.03795338302734	Jitter1	Exp	Val	CueName2	Fem	1	0.765743979205581
190.464947619443	0.5	target	Exp	Val	Word	Fem	1	0.765743979205581
190.981813591876	2.51825855607967	Jitter2	Exp	Val	Word	Fem	1	0.765743979205581
193.517007137667	0.5	cue	Exp	Val	CueName2	Mas	1	0.638097024344461
194.034201262348	2.5355141559412	Jitter1	Exp	Val	CueName2	Mas	1	0.638097024344461
196.552521293608	0.5	target	Exp	Val	Word	Mas	1	0.638097024344461
197.069419142063	3.91838258795178	Jitter2	Exp	Val	Word	Mas	1	0.638097024344461
201.005593956987	0.5	cue	Exp	Val	CueFace2	Fem	1	0.917582556758134
201.522662285231	2.5354822799236	Jitter1	Exp	Val	CueFace2	Fem	1	0.917582556758134
204.04107623691	0.5	target	Exp	Val	Face	Fem	1	0.917582556758134
204.558006815205	6.01840498654929	Jitter2	Exp	Val	Face	Fem	1	0.917582556758134
210.595698786405	0.5	cue	Exp	Inval	CueFace2	Mas	1	0.78485080741666
211.112749184384	6.03792549150967	Jitter1	Exp	Inval	CueFace2	Mas	1	0.78485080741666
217.133624277914	0.5	target	Exp	Inval	Word	Mas	1	0.78485080741666
217.650515295794	3.91842926355093	Jitter2	Exp	Inval	Word	Mas	1	0.78485080741666
221.586751301296	0.5	cue	Exp	Val	CueName2	Mas	1	0.639278998569353
222.103781492155	3.93644732643952	Jitter1	Exp	Val	CueName2	Mas	1	0.639278998569353
226.023198627736	0.5	target	Exp	Val	Word	Mas	1	0.639278998569353
226.540095337761	3.21836781682941	Jitter2	Exp	Val	Word	Mas	1	0.639278998569353
229.77577638744	0.5	cue	Exp	Val	CueName2	Fem	1	0.726591972423194
230.292829346883	3.23604065103063	Jitter1	Exp	Val	CueName2	Fem	1	0.726591972423194
233.51181703847	0.5	target	Exp	Val	Word	Fem	1	0.726591972423194
234.028681587868	5.31840985333474	Jitter2	Exp	Val	Word	Fem	1	0.726591972423194
239.365918215808	0.5	cue	Exp	Inval	CueName2	Mas	1	0.740950127405085
239.882921653578	2.53545666526043	Jitter1	Exp	Inval	CueName2	Mas	1	0.740950127405085
242.401374881068	0.5	target	Exp	Inval	Face	Mas	1	0.740950127405085
242.918252237796	5.31836972370002	Jitter2	Exp	Inval	Face	Mas	1	0.740950127405085
248.255396368353	0.5	cue	Exp	Val	CueFace2	Fem	1	0.694910338734189
248.772456442981	3.23601475176474	Jitter1	Exp	Val	CueFace2	Fem	1	0.694910338734189
251.991411120118	0.5	target	Exp	Val	Face	Fem	1	0.694910338734189
252.508330029515	3.91837547276737	Jitter2	Exp	Val	Face	Fem	1	0.694910338734189
256.444486344964	0.5	cue	Exp	Val	CueFace2	Fem	1	0.734272385714576
256.961544427344	2.53548199531724	Jitter1	Exp	Val	CueFace2	Fem	1	0.734272385714576
259.479968340282	0.5	target	Exp	Val	Face	Fem	1	0.734272385714576
259.996900910828	3.91839653371062	Jitter2	Exp	Val	Face	Fem	1	0.734272385714576
263.933123824394	0.5	cue	Exp	Val	CueFace2	Fem	1	0.820314303255145
264.450180483735	5.32078618219748	Jitter1	Exp	Val	CueFace2	Fem	1	0.820314303255145
269.753910006591	0.5	target	Exp	Val	Face	Fem	1	0.820314303255145
270.270775409812	6.01835717251743	Jitter2	Exp	Val	Face	Fem	1	0.820314303255145
276.291826675275	0.5	cue	Exp	Val	CueName2	Fem	1	0.804907939491386
276.80886910425	5.33738732751954	Jitter1	Exp	Val	CueName2	Fem	1	0.804907939491386
282.129214002794	0.5	target	Exp	Val	Word	Fem	1	0.804907939491386
282.646125512398	6.01840640958471	Jitter2	Exp	Val	Word	Fem	1	0.804907939491386
288.683814352917	0.5	cue	Exp	Val	CueName2	Mas	1	0.740761717355781
289.200935618122	5.33750145505473	Jitter1	Exp	Val	CueName2	Mas	1	0.740761717355781
294.521315807971	0.5	target	Exp	Val	Word	Mas	1	0.740761717355781
295.038172957578	4.61837117519826	Jitter2	Exp	Val	Word	Mas	1	0.740761717355781
299.674804823411	0.5	cue	Exp	Val	CueFace2	Fem	1	0.614339997035131
300.191895351025	5.3208433882719	Jitter1	Exp	Val	CueFace2	Fem	1	0.614339997035131
305.495648211683	0.5	target	Exp	Val	Face	Fem	1	0.614339997035131
306.012517599404	2.51837126057944	Jitter2	Exp	Val	Face	Fem	1	0.614339997035131
308.547758674616	0.5	cue	Exp	Val	CueFace2	Fem	1	0.800865092427557
309.064755281812	6.0212748245176	Jitter1	Exp	Val	CueFace2	Fem	1	0.800865092427557
315.069033499134	0.5	target	Exp	Val	Face	Fem	1	0.800865092427557
315.585902317642	2.51840626728153	Jitter2	Exp	Val	Face	Fem	1	0.800865092427557
318.121141685209	0.5	cue	Exp	Val	CueFace2	Mas	1	0.788508011555678
318.638166753139	4.62029184773564	Jitter1	Exp	Val	CueFace2	Mas	1	0.788508011555678
323.241433532945	0.5	target	Exp	Val	Face	Mas	1	0.788508011555678
323.758304912917	2.51827392487758	Jitter2	Exp	Val	Face	Mas	1	0.788508011555678
326.293506712322	0.5	cue	Exp	Val	CueFace2	Mas	1	0.759031230816618
326.810571340666	6.02130926200334	Jitter1	Exp	Val	CueFace2	Mas	1	0.759031230816618
332.814815974325	0.5	target	Exp	Val	Face	Mas	1	0.759031230816618
333.331684792833	3.2183848932691	Jitter2	Exp	Val	Face	Mas	1	0.759031230816618
336.567417925649	0.5	cue	Exp	Inval	CueName2	Fem	1	0.758367526530492
337.084454093263	3.23595697648125	Jitter1	Exp	Inval	CueName2	Fem	1	0.758367526530492
340.303374902131	0.5	target	Exp	Inval	Face	Fem	1	0.758367526530492
340.820273035191	6.01838221796061	Jitter2	Exp	Inval	Face	Fem	1	0.758367526530492
346.84130039364	0.5	cue	Exp	Val	CueName2	Fem	1	0.611471439795423
347.358318915598	4.63693312268515	Jitter1	Exp	Val	CueName2	Fem	1	0.611471439795423
351.978233516325	0.5	target	Exp	Val	Word	Fem	1	0.611471439795423
352.495129657134	2.51827506330301	Jitter2	Exp	Val	Word	Fem	1	0.611471439795423
355.030335156433	0.5	cue	Exp	Val	CueFace2	Mas	1	0.763506111801689
355.547428245511	3.91980605149001	Jitter1	Exp	Val	CueFace2	Mas	1	0.763506111801689
359.450141207923	0.5	target	Exp	Val	Face	Mas	1	0.763506111801689
359.967040479412	3.21825795840414	Jitter2	Exp	Val	Face	Mas	1	0.763506111801689
363.202767066265	0.5	cue	Exp	Val	CueFace2	Mas	0	0.823358747820748
363.719811202882	2.5354933796043	Jitter1	Exp	Val	CueFace2	Mas	0	0.823358747820748
366.238260445869	0.5	target	Exp	Val	Face	Mas	0	0.823358747820748
366.755135241132	4.6184235429464	Jitter2	Exp	Val	Face	Mas	0	0.823358747820748
371.391876111567	0.5	cue	Exp	Inval	CueFace2	Mas	1	0.674226785929932
371.908877841695	2.53546520348391	Jitter1	Exp	Inval	CueFace2	Mas	1	0.674226785929932
374.427341315051	0.5	target	Exp	Inval	Word	Mas	1	0.674226785929932
374.944221233243	3.2183698090812	Jitter2	Exp	Inval	Word	Mas	1	0.674226785929932
378.179970588677	0.5	cue	Exp	Inval	CueFace2	Fem	1	0.669138006946014
378.696943004252	3.93645387241122	Jitter1	Exp	Inval	CueFace2	Fem	1	0.669138006946014
382.616424461088	0.5	target	Exp	Inval	Word	Fem	1	0.669138006946014
383.133284741376	5.31838196181343	Jitter2	Exp	Inval	Word	Fem	1	0.669138006946014
388.470495754653	0.5	cue	Exp	Inval	CueName2	Mas	1	0.786157439652015
388.987543021954	5.32077679015856	Jitter1	Exp	Inval	CueName2	Mas	1	0.786157439652015
394.291272544811	0.5	target	Exp	Inval	Face	Mas	1	0.786157439652015
394.808170677872	4.61824167886516	Jitter2	Exp	Inval	Face	Mas	1	0.786157439652015
399.444865441925	0.5	cue	Exp	Val	CueName2	Mas	1	0.843053005552065
399.961895632783	5.33743286468962	Jitter1	Exp	Val	CueName2	Mas	1	0.843053005552065
405.282298306614	0.5	target	Exp	Val	Word	Mas	1	0.843053005552065
405.799230592555	6.01833924225502	Jitter2	Exp	Val	Word	Mas	1	0.843053005552065
411.820247989745	0.5	cue	Exp	Val	CueName2	Mas	1	0.608140395652299
412.337257973486	4.63690409274204	Jitter1	Exp	Val	CueName2	Mas	1	0.608140395652299
416.957152082487	0.5	target	Exp	Val	Word	Mas	1	0.608140395652299
417.474055623086	3.9184508937069	Jitter2	Exp	Val	Word	Mas	1	0.608140395652299
421.410279105865	0.5	cue	Exp	Val	CueFace2	Mas	1	0.743203363603243
421.927299335468	3.91979665945109	Jitter1	Exp	Val	CueFace2	Mas	1	0.743203363603243
425.830075765316	0.5	target	Exp	Val	Face	Mas	1	0.743203363603243
426.346944014607	4.61839593603509	Jitter2	Exp	Val	Face	Mas	1	0.743203363603243
430.983586980125	0.5	cue	Exp	Val	CueName2	Fem	1	0.788580017208005
431.500685476742	4.63698207514608	Jitter1	Exp	Val	CueName2	Fem	1	0.788580017208005
436.120569055271	0.5	target	Exp	Val	Word	Fem	1	0.788580017208005
436.637488249275	3.91837831884186	Jitter2	Exp	Val	Word	Fem	1	0.788580017208005
440.573717708809	0.5	cue	Exp	Val	CueFace2	Mas	1	0.647388884321117
441.090750176525	3.23603495888528	Jitter1	Exp	Val	CueFace2	Mas	1	0.647388884321117
444.309752667694	0.5	target	Exp	Val	Face	Mas	1	0.647388884321117
444.826578795102	3.91845971653675	Jitter2	Exp	Val	Face	Mas	1	0.647388884321117
448.762810246888	0.5	cue	Exp	Val	CueFace2	Mas	1	0.749464155560418
449.279832753349	5.32077422869042	Jitter1	Exp	Val	CueFace2	Mas	1	0.749464155560418
454.583584475578	0.5	target	Exp	Val	Face	Mas	1	0.749464155560418
455.100452440263	5.3183665930228	Jitter2	Exp	Val	Face	Mas	1	0.749464155560418
460.437660892079	0.5	cue	Exp	Val	CueName2	Fem	1	0.639362103906024
460.954731497179	3.23598429878257	Jitter1	Exp	Val	CueName2	Fem	1	0.639362103906024
464.173645190862	0.5	target	Exp	Val	Word	Fem	1	0.639362103906024
464.69050518654	5.31841526087374	Jitter2	Exp	Val	Word	Fem	1	0.639362103906024
