onset	duration	section	btype	validity	stim	gender	accuracy	reaction_time
10.0723243071561	0.5	cue	Att	Inval	CueName1	Mas	1	0.681946771887851
10.5893710553637	5.3373882068463	Jitter1	Att	Inval	CueName1	Mas	1	0.681946771887851
15.9097125140024	0.5	target	Att	Inval	Face	Mas	1	0.681946771887851
16.426615251683	6.0185460514931	Jitter2	Att	Inval	Face	Mas	1	0.681946771887851
22.4642276140476	0.5	cue	Att	Val	CueFace1	Fem	1	0.471329666851489
22.9812999767764	3.2359777574884	Jitter1	Att	Val	CueFace1	Fem	1	0.471329666851489
26.200205371536	0.5	target	Att	Val	Face	Fem	1	0.471329666851489
26.7171064015811	4.61826907314116	Jitter2	Att	Val	Face	Fem	1	0.471329666851489
31.3537610085523	0.5	cue	Att	Inval	CueName1	Mas	1	0.613736156774394
31.8708162949333	3.23596181956418	Jitter1	Att	Inval	CueName1	Mas	1	0.613736156774394
35.0897228281165	0.5	target	Att	Inval	Face	Mas	1	0.613736156774394
35.6066258504025	4.61841279906366	Jitter2	Att	Inval	Face	Mas	1	0.613736156774394
40.2433086333458	0.5	cue	Att	Val	CueName1	Fem	1	0.641513396963092
40.760346274169	6.05448293959125	Jitter1	Att	Val	CueName1	Fem	1	0.641513396963092
46.7977915729371	0.5	target	Att	Val	Word	Fem	1	0.641513396963092
47.3147759924777	3.21835155189819	Jitter2	Att	Val	Word	Fem	1	0.641513396963092
50.550453206255	0.5	cue	Att	Inval	CueName1	Mas	1	0.661274145954849
51.0674820242984	2.5354436662692	Jitter1	Att	Inval	CueName1	Mas	1	0.661274145954849
53.5858968725242	0.5	target	Att	Inval	Face	Mas	1	0.661274145954849
54.1028275015715	5.31844854555038	Jitter2	Att	Inval	Face	Mas	1	0.661274145954849
59.4400008310495	0.5	cue	Att	Inval	CueFace1	Fem	1	0.623228898188245
59.9571224305791	3.23590831367619	Jitter1	Att	Inval	CueFace1	Fem	1	0.623228898188245
63.1759091447257	0.5	target	Att	Inval	Word	Fem	1	0.623228898188245
63.6928360738975	3.21835439795632	Jitter2	Att	Inval	Word	Fem	1	0.623228898188245
66.9285468711578	0.5	cue	Att	Val	CueName1	Mas	1	0.693540757825758
67.4455682894513	4.63690278321701	Jitter1	Att	Val	CueName1	Mas	1	0.693540757825758
72.0654496543748	0.5	target	Att	Val	Word	Mas	1	0.693540757825758
72.5823740220949	3.91833920000681	Jitter2	Att	Val	Word	Mas	1	0.693540757825758
76.5186379791621	0.5	cue	Att	Inval	CueFace1	Mas	1	0.690918684710596
77.0355515318624	5.33736401535589	Jitter1	Att	Inval	CueFace1	Mas	1	0.690918684710596
82.356001994518	0.5	target	Att	Inval	Word	Mas	1	0.690918684710596
82.8728475264343	6.0184285093037	Jitter2	Att	Inval	Word	Mas	1	0.690918684710596
88.9105048565134	0.5	cue	Att	Val	CueName1	Mas	1	0.683808662945012
89.4275009448911	3.93642532854847	Jitter1	Att	Val	CueName1	Mas	1	0.683808662945012
93.3469301850619	0.5	target	Att	Val	Word	Mas	1	0.683808662945012
93.8638286536552	6.01837528802116	Jitter2	Att	Val	Word	Mas	1	0.683808662945012
99.9014913912442	0.5	cue	Att	Val	CueFace1	Mas	1	0.796388466407734
100.418515940201	5.32072766869169	Jitter1	Att	Val	CueFace1	Mas	1	0.796388466407734
105.722219059936	0.5	target	Att	Val	Face	Mas	1	0.796388466407734
106.239108421144	3.91835542253739	Jitter2	Att	Val	Face	Mas	1	0.796388466407734
110.175329687344	0.5	cue	Att	Inval	CueName1	Mas	1	0.957939533792342
110.692271131411	6.0211880470124	Jitter1	Att	Inval	CueName1	Mas	1	0.957939533792342
116.696517734356	0.5	target	Att	Inval	Face	Mas	1	0.957939533792342
117.21341278768	2.51838894909906	Jitter2	Att	Inval	Face	Mas	1	0.957939533792342
119.74865096857	0.5	cue	Att	Val	CueName1	Mas	1	0.59038738262916
120.265635103506	2.53537962996688	Jitter1	Att	Val	CueName1	Mas	1	0.59038738262916
122.784030598537	0.5	target	Att	Val	Word	Mas	1	0.59038738262916
123.300980296172	5.31835804091043	Jitter2	Att	Val	Word	Mas	1	0.59038738262916
128.638123742043	0.5	cue	Att	Val	CueFace1	Fem	1	0.702941002358784
129.155194966348	6.02123956065952	Jitter1	Att	Val	CueFace1	Fem	1	0.702941002358784
135.159363302702	0.5	target	Att	Val	Face	Fem	1	0.702941002358784
135.676270594075	5.31825273676986	Jitter2	Att	Val	Face	Fem	1	0.702941002358784
141.013420585879	0.5	cue	Att	Val	CueFace1	Mas	1	0.77292584994666
141.530451111556	3.91978357437529	Jitter1	Att	Val	CueFace1	Mas	1	0.77292584994666
145.433204160254	0.5	target	Att	Val	Face	Mas	1	0.77292584994666
145.950075591297	3.21835838243805	Jitter2	Att	Val	Face	Mas	1	0.77292584994666
149.185776996566	0.5	cue	Att	Val	CueFace1	Mas	1	0.668082200982099
149.702790161292	4.62023456070528	Jitter1	Att	Val	CueFace1	Mas	1	0.668082200982099
154.306011557272	0.5	target	Att	Val	Face	Mas	1	0.668082200982099
154.822915148769	2.51829275234286	Jitter2	Att	Val	Face	Mas	1	0.668082200982099
157.358144222275	0.5	cue	Att	Inval	CueFace1	Fem	1	0.733953641132757
157.875177594011	6.03789440669971	Jitter1	Att	Inval	CueFace1	Fem	1	0.733953641132757
163.896038628975	0.5	target	Att	Inval	Word	Fem	1	0.733953641132757
164.412922582673	4.6183632776565	Jitter2	Att	Inval	Word	Fem	1	0.733953641132757
169.049575197403	0.5	cue	Att	Inval	CueFace1	Mas	1	0.627312137412446
169.56662877615	4.6369360820936	Jitter1	Att	Inval	CueFace1	Mas	1	0.627312137412446
174.186511279497	0.5	target	Att	Inval	Word	Mas	1	0.627312137412446
174.703416294023	5.31828034353111	Jitter2	Att	Inval	Word	Mas	1	0.627312137412446
180.04058563902	0.5	cue	Att	Val	CueFace1	Fem	1	0.56066059279965
180.55761531088	3.93642134406764	Jitter1	Att	Val	CueFace1	Fem	1	0.56066059279965
184.477006983087	0.5	target	Att	Val	Face	Fem	1	0.56066059279965
184.993909720768	2.51819940164478	Jitter2	Att	Val	Face	Fem	1	0.56066059279965
187.529098380252	0.5	cue	Att	Val	CueName1	Fem	1	0.680111918380135
188.046123213814	3.93641280589418	Jitter1	Att	Val	CueName1	Fem	1	0.680111918380135
191.965511186146	0.5	target	Att	Val	Word	Fem	1	0.680111918380135
192.482454337848	2.51835308876889	Jitter2	Att	Val	Word	Fem	1	0.680111918380135
195.017729232885	0.5	cue	Att	Inval	CueName1	Fem	1	0.663442842050245
195.534702837406	3.93636926120871	Jitter1	Att	Inval	CueName1	Fem	1	0.663442842050245
199.454098494094	0.5	target	Att	Inval	Face	Fem	1	0.663442842050245
199.970998670322	2.51837500341571	Jitter2	Att	Inval	Face	Fem	1	0.663442842050245
202.50630060291	0.5	cue	Att	Val	CueFace1	Mas	1	0.74596998205925
203.023249446726	6.02113141045993	Jitter1	Att	Val	CueFace1	Mas	1	0.74596998205925
209.027432013369	0.5	target	Att	Val	Face	Mas	1	0.74596998205925
209.544327066694	5.31835121037147	Jitter2	Att	Val	Face	Mas	1	0.74596998205925
214.881436644475	0.5	cue	Att	Inval	CueFace1	Mas	1	0.601879479694617
215.398504453511	6.03794705877044	Jitter1	Att	Inval	CueFace1	Mas	1	0.601879479694617
221.419383703245	0.5	target	Att	Inval	Word	Mas	1	0.601879479694617
221.936283594867	2.51835621943337	Jitter2	Att	Inval	Word	Mas	1	0.601879479694617
224.471507260863	0.5	cue	Att	Val	CueFace1	Fem	1	0.562226209232904
224.98853180982	2.53544395087465	Jitter1	Att	Val	CueFace1	Fem	1	0.562226209232904
227.506951211738	0.5	target	Att	Val	Face	Fem	1	0.562226209232904
228.023853949418	6.01837813407928	Jitter2	Att	Val	Face	Fem	1	0.562226209232904
234.061540878499	0.5	cue	Att	Inval	CueName1	Fem	1	0.686355030919913
234.578551481772	6.02117922423258	Jitter1	Att	Inval	CueName1	Fem	1	0.686355030919913
240.582720102731	0.5	target	Att	Inval	Face	Fem	1	0.686355030919913
241.099619709747	3.91836766058623	Jitter2	Att	Inval	Face	Fem	1	0.686355030919913
245.035818492091	0.5	cue	Att	Inval	CueFace1	Mas	1	0.665186621707107
245.552841618019	3.23593449740838	Jitter1	Att	Inval	CueFace1	Mas	1	0.665186621707107
248.771752989499	0.5	target	Att	Inval	Word	Mas	1	0.665186621707107
249.288651458092	4.61838063860978	Jitter2	Att	Inval	Word	Mas	1	0.665186621707107
253.925335948671	0.5	cue	Att	Inval	CueName1	Fem	1	0.543294801504999
254.442389242812	4.62023797597431	Jitter1	Att	Inval	CueName1	Fem	1	0.543294801504999
259.045573924645	0.5	target	Att	Inval	Face	Fem	1	0.543294801504999
259.562469262575	3.21838314314118	Jitter2	Att	Inval	Face	Fem	1	0.543294801504999
262.798146476352	0.5	cue	Att	Inval	CueFace1	Mas	1	0.554119782606904
263.315205747215	3.93645805821507	Jitter1	Att	Inval	CueFace1	Mas	1	0.554119782606904
267.234604534568	0.5	target	Att	Inval	Word	Mas	1	0.554119782606904
267.751499872496	3.21839111210284	Jitter2	Att	Inval	Word	Mas	1	0.554119782606904
270.987180216938	0.5	cue	Att	Inval	CueName1	Fem	1	0.540744449048361
271.504227818964	5.320756698482	Jitter1	Att	Inval	CueName1	Fem	1	0.540744449048361
276.80793691542	0.5	target	Att	Inval	Face	Fem	1	0.540744449048361
277.324827415051	6.01840061793609	Jitter2	Att	Inval	Face	Fem	1	0.540744449048361
283.34580826905	0.5	cue	Att	Val	CueName1	Fem	1	0.602778833981574
283.862802080583	3.23596665786317	Jitter1	Att	Val	CueName1	Fem	1	0.602778833981574
287.081774926914	0.5	target	Att	Val	Word	Fem	1	0.602778833981574
287.598642942688	5.31837967094998	Jitter2	Att	Val	Word	Fem	1	0.602778833981574
292.935814564531	0.5	cue	Att	Val	CueName1	Mas	1	0.591203062813292
293.452843097968	5.33740016028969	Jitter1	Att	Val	CueName1	Mas	1	0.591203062813292
298.773214724821	0.5	target	Att	Val	Word	Mas	1	0.591203062813292
299.290112624202	2.51836134233781	Jitter2	Att	Val	Word	Mas	1	0.591203062813292
301.825308114225	0.5	cue	Att	Inval	CueName1	Mas	1	0.770713893771244
302.342364823636	4.6202641597074	Jitter1	Att	Inval	CueName1	Mas	1	0.770713893771244
306.945572273932	0.5	target	Att	Inval	Face	Mas	1	0.770713893771244
307.462467611862	3.91837022203799	Jitter2	Att	Inval	Face	Mas	1	0.770713893771244
311.398676070801	0.5	cue	Att	Val	CueName1	Fem	1	0.628640677225121
311.915690373949	4.63690022176434	Jitter1	Att	Val	CueName1	Fem	1	0.628640677225121
316.535576292566	0.5	target	Att	Val	Word	Fem	1	0.628640677225121
317.052472768919	6.01828933707293	Jitter2	Att	Val	Word	Fem	1	0.628640677225121
323.073462730304	0.5	cue	Att	Val	CueFace1	Fem	1	0.517906257684444
323.590492117558	5.32071742288281	Jitter1	Att	Val	CueFace1	Fem	1	0.517906257684444
328.894180153186	0.5	target	Att	Val	Face	Fem	1	0.517906257684444
329.411072645058	3.21835382874451	Jitter2	Att	Val	Face	Fem	1	0.517906257684444
332.64680905684	0.5	cue	Att	Inval	CueFace1	Fem	1	0.528740915382514
333.163809129698	3.93639886021083	Jitter1	Att	Inval	CueFace1	Fem	1	0.528740915382514
337.08320791705	0.5	target	Att	Inval	Word	Fem	1	0.528740915382514
337.600104108797	6.01836361918504	Jitter2	Att	Inval	Word	Fem	1	0.528740915382514
343.637770830866	0.5	cue	Att	Val	CueFace1	Mas	1	0.694191366654195
344.154795379824	3.23590034471454	Jitter1	Att	Val	CueFace1	Mas	1	0.694191366654195
347.373671175581	0.5	target	Att	Val	Face	Mas	1	0.694191366654195
347.89060237384	4.61835701633026	Jitter2	Att	Val	Face	Mas	1	0.694191366654195
352.527251573301	0.5	cue	Att	Val	CueFace1	Mas	0	0.688997595651017
353.044312551798	2.53547838817394	Jitter1	Att	Val	CueFace1	Mas	0	0.688997595651017
355.562729961475	0.5	target	Att	Val	Face	Mas	0	0.688997595651017
356.079630422309	6.01837728026112	Jitter2	Att	Val	Face	Mas	0	0.688997595651017
362.100655959417	0.5	cue	Att	Inval	CueName1	Fem	1	0.539555650677357
362.617638671323	2.53543199743217	Jitter1	Att	Inval	CueName1	Fem	1	0.539555650677357
365.136087956849	0.5	target	Att	Inval	Face	Fem	1	0.539555650677357
365.65296024171	4.61830664110494	Jitter2	Att	Inval	Face	Fem	1	0.539555650677357
370.289645870711	0.5	cue	Att	Inval	CueFace1	Mas	1	0.534400301456117
370.80668521917	2.53544622772097	Jitter1	Att	Inval	CueFace1	Mas	1	0.534400301456117
373.325092098432	0.5	target	Att	Inval	Word	Mas	1	0.534400301456117
373.841992559266	3.91826691013739	Jitter2	Att	Inval	Word	Mas	1	0.534400301456117
377.778177395925	0.5	cue	Att	Val	CueName1	Mas	1	0.80934998315206
378.295199098824	3.23593677425561	Jitter1	Att	Val	CueName1	Mas	1	0.80934998315206
381.514114170181	0.5	target	Att	Val	Word	Mas	1	0.80934998315206
382.0310237384	3.21838342774572	Jitter2	Att	Val	Word	Mas	1	0.80934998315206
385.266734820267	0.5	cue	Att	Val	CueName1	Fem	1	0.651126242019018
385.783762784493	5.33745082011956	Jitter1	Att	Val	CueName1	Fem	1	0.651126242019018
391.104185640386	0.5	target	Att	Val	Word	Fem	1	0.651126242019018
391.621033733754	4.61839572271674	Jitter2	Att	Val	Word	Fem	1	0.651126242019018
396.257653618819	0.5	cue	Att	Val	CueFace1	Fem	1	0.705282738772439
396.774778918225	4.62030002003667	Jitter1	Att	Val	CueFace1	Fem	1	0.705282738772439
401.377953638856	0.5	target	Att	Val	Face	Fem	1	0.705282738772439
401.894846699939	3.91830163204395	Jitter2	Att	Val	Face	Fem	1	0.705282738772439
405.830987138095	0.5	cue	Att	Inval	CueName1	Fem	0	0.67612259906673
406.348061493065	3.23598885711363	Jitter1	Att	Inval	CueName1	Fem	0	0.67612259906673
409.566975995209	0.5	target	Att	Inval	Face	Fem	0	0.67612259906673
410.083879017495	5.31828717407006	Jitter2	Att	Inval	Face	Fem	0	0.67612259906673
415.421049216309	0.5	cue	Att	Inval	CueName1	Mas	1	0.610135893570259
415.938080595806	3.91977532080818	Jitter1	Att	Inval	CueName1	Mas	1	0.610135893570259
419.840824537117	0.5	target	Att	Inval	Face	Mas	1	0.610135893570259
420.357696252766	3.21834955965824	Jitter2	Att	Inval	Face	Mas	1	0.610135893570259
423.59337517418	0.5	cue	Att	Val	CueName1	Mas	1	0.655656312328574
424.11041964554	6.03787391508195	Jitter1	Att	Val	CueName1	Mas	1	0.655656312328574
430.131249089261	0.5	target	Att	Val	Word	Mas	1	0.655656312328574
430.648188541089	4.61836498529192	Jitter2	Att	Val	Word	Mas	1	0.655656312328574
435.284883562081	0.5	cue	Att	Inval	CueFace1	Fem	1	0.932980175499324
435.801887334816	4.63690306782337	Jitter1	Att	Inval	CueFace1	Fem	1	0.932980175499324
440.421786629904	0.5	target	Att	Inval	Word	Fem	1	0.932980175499324
440.938689936795	5.3183540564296	Jitter2	Att	Inval	Word	Fem	1	0.932980175499324
446.275844766897	0.5	cue	Att	Inval	CueFace1	Fem	1	0.74742061775396
446.792853377929	2.5354228900469	Jitter1	Att	Inval	CueFace1	Fem	1	0.74742061775396
449.311267656944	0.5	target	Att	Inval	Word	Fem	1	0.74742061775396
449.828202270472	2.51835251955708	Jitter2	Att	Inval	Word	Fem	1	0.74742061775396
452.36339263759	0.5	cue	Att	Inval	CueFace1	Fem	1	0.617697015510203
452.880420601816	5.33747045792006	Jitter1	Att	Inval	CueFace1	Fem	1	0.617697015510203
458.20086309551	0.5	target	Att	Inval	Word	Fem	1	0.617697015510203
458.717730826678	3.91835599174738	Jitter2	Att	Inval	Word	Fem	1	0.617697015510203
462.653919647817	0.5	cue	Att	Val	CueName1	Fem	1	0.60911899709572
463.170942204533	2.53544992759635	Jitter1	Att	Val	CueName1	Fem	1	0.60911899709572
465.689369575413	0.5	target	Att	Val	Word	Fem	1	0.60911899709572
466.206265767161	3.91838701377856	Jitter2	Att	Val	Word	Fem	1	0.60911899709572
