onset	duration	section	btype	validity	stim	gender	accuracy	reaction_time
10.0893612927757	0.5	cue	Exp	Val	CueFace2	Fem	1	0.585031419224833
10.6063914836377	5.3373412211331	Jitter1	Exp	Val	CueFace2	Fem	1	0.585031419224833
15.9267025139088	0.5	target	Exp	Val	Face	Fem	1	0.585031419224833
16.4436717987992	3.91895664092954	Jitter2	Exp	Val	Face	Fem	1	0.585031419224833
20.3798895894324	0.5	cue	Exp	Inval	CueName2	Mas	1	0.680325351713691
20.896930310766	2.53546605730298	Jitter1	Exp	Inval	CueName2	Mas	1	0.680325351713691
23.4153556467354	0.5	target	Exp	Inval	Face	Mas	1	0.680325351713691
23.9322586181224	3.91839254920706	Jitter2	Exp	Inval	Face	Mas	1	0.680325351713691
27.8684032646743	0.5	cue	Exp	Val	CueName2	Mas	1	0.675214657960169
28.3855102995112	3.23603638192435	Jitter1	Exp	Val	CueName2	Mas	1	0.675214657960169
31.6044396465986	0.5	target	Exp	Val	Word	Mas	1	0.675214657960169
32.1213409103402	4.61839479760602	Jitter2	Exp	Val	Word	Mas	1	0.675214657960169
36.7580536046517	0.5	cue	Exp	Val	CueFace2	Mas	1	0.620717762601998
37.2750755419002	5.32076569047058	Jitter1	Exp	Val	CueFace2	Mas	1	0.620717762601998
42.5788192951222	0.5	target	Exp	Val	Face	Mas	1	0.620717762601998
43.0956992133179	5.31839249228506	Jitter2	Exp	Val	Face	Mas	1	0.620717762601998
48.4329144957046	0.5	cue	Exp	Inval	CueFace2	Fem	0	0.590637898934801
48.9499927852048	3.23595356119404	Jitter1	Exp	Inval	CueFace2	Fem	0	0.590637898934801
52.1688680568986	0.5	target	Exp	Inval	Word	Fem	0	0.590637898934801
52.685771312892	3.91840450271411	Jitter2	Exp	Inval	Word	Fem	0	0.590637898934801
56.6219984955642	0.5	cue	Exp	Val	CueFace2	Fem	1	0.9806475556652
57.1390483243304	5.32077963623306	Jitter1	Exp	Val	CueFace2	Fem	1	0.9806475556652
62.4427781317972	0.5	target	Exp	Val	Face	Fem	1	0.9806475556652
62.9596700034963	3.91836579612209	Jitter2	Exp	Val	Face	Fem	1	0.9806475556652
66.8958209114098	0.5	cue	Exp	Val	CueFace2	Mas	1	0.607277181636164
67.4129040392327	4.62032144689874	Jitter1	Exp	Val	CueFace2	Mas	1	0.607277181636164
72.0161423583086	0.5	target	Exp	Val	Face	Mas	1	0.607277181636164
72.5330347992203	2.51834564592355	Jitter2	Exp	Val	Face	Mas	1	0.607277181636164
75.0682587979936	0.5	cue	Exp	Inval	CueFace2	Mas	1	0.58367213463498
75.585306919118	2.53548028767182	Jitter1	Exp	Inval	CueFace2	Mas	1	0.58367213463498
78.1037390856654	0.5	target	Exp	Inval	Word	Mas	1	0.58367213463498
78.6206383571553	5.31842835280986	Jitter2	Exp	Inval	Word	Mas	1	0.58367213463498
83.9578456705385	0.5	cue	Exp	Val	CueName2	Mas	1	0.583473194117687
84.4748249166878	6.03791695328982	Jitter1	Exp	Val	CueName2	Mas	1	0.583473194117687
90.4957626238283	0.5	target	Exp	Val	Word	Mas	1	0.583473194117687
91.0126667336444	3.21836468614856	Jitter2	Exp	Val	Word	Mas	1	0.583473194117687
94.248408404681	0.5	cue	Exp	Val	CueFace2	Fem	1	1.31882424159994
94.765432903394	3.23594246150606	Jitter1	Exp	Val	CueFace2	Fem	1	1.31882424159994
97.984350866187	0.5	target	Exp	Val	Face	Fem	1	1.31882424159994
98.5012546913968	5.31847929751893	Jitter2	Exp	Val	Face	Fem	1	1.31882424159994
103.838456597241	0.5	cue	Exp	Val	CueName2	Mas	1	0.603362692476367
104.355480242131	5.33738305840598	Jitter1	Exp	Val	CueName2	Mas	1	0.603362692476367
109.675839655647	0.5	target	Exp	Val	Word	Mas	1	0.603362692476367
110.19279300253	3.91835896554403	Jitter2	Exp	Val	Word	Mas	1	0.603362692476367
114.12902815421	0.5	cue	Exp	Val	CueName2	Fem	1	0.516942816411756
114.646101605384	4.63692572289438	Jitter1	Exp	Val	CueName2	Fem	1	0.516942816411756
119.265953877104	0.5	target	Exp	Val	Word	Fem	1	0.516942816411756
119.782847456449	3.21842843819104	Jitter2	Exp	Val	Word	Fem	1	0.516942816411756
123.018584858379	0.5	cue	Exp	Val	CueFace2	Mas	1	1.00902375987425
123.535565527563	2.53547402630647	Jitter1	Exp	Val	CueFace2	Mas	1	1.00902375987425
126.054058884685	0.5	target	Exp	Val	Face	Mas	1	1.00902375987425
126.570953602459	3.2183672476167	Jitter2	Exp	Val	Face	Mas	1	1.00902375987425
129.806622983237	0.5	cue	Exp	Inval	CueName2	Fem	0	0.448330536117282
130.323706964882	3.23601475176838	Jitter1	Exp	Inval	CueName2	Fem	0	0.448330536117282
133.542637735005	0.5	target	Exp	Inval	Face	Fem	0	0.448330536117282
134.059715170679	6.01819864623758	Jitter2	Exp	Inval	Face	Fem	0	0.448330536117282
140.097172625443	0.5	cue	Exp	Inval	CueFace2	Fem	1	0.948783488674962
140.614266283737	4.63700655137654	Jitter1	Exp	Inval	CueFace2	Fem	1	0.948783488674962
145.234179176819	0.5	target	Exp	Inval	Word	Fem	1	0.948783488674962
145.751079302132	6.01838677167689	Jitter2	Exp	Inval	Word	Fem	1	0.948783488674962
151.788771273328	0.5	cue	Exp	Val	CueName2	Fem	1	0.537184089425864
152.305757919268	4.63688673169236	Jitter1	Exp	Val	CueName2	Fem	1	0.537184089425864
156.925658005021	0.5	target	Exp	Val	Word	Fem	1	0.537184089425864
157.442619890124	2.5183832140865	Jitter2	Exp	Val	Word	Fem	1	0.537184089425864
159.977943501461	0.5	cue	Exp	Val	CueFace2	Mas	1	0.435690270955092
160.494821427401	6.02118801928373	Jitter1	Exp	Val	CueFace2	Mas	1	0.435690270955092
166.499131520744	0.5	target	Exp	Val	Face	Mas	1	0.435690270955092
167.016157727103	6.01825186780479	Jitter2	Exp	Val	Face	Mas	1	0.435690270955092
173.05371137914	0.5	cue	Exp	Val	CueFace2	Mas	1	0.556640130827873
173.570760638693	3.9364265501099	Jitter1	Exp	Val	CueFace2	Mas	1	0.556640130827873
177.49013792925	0.5	target	Exp	Val	Face	Mas	1	0.556640130827873
178.007049438853	3.21824685871979	Jitter2	Exp	Val	Face	Mas	1	0.556640130827873
181.24278997146	0.5	cue	Exp	Val	CueName2	Fem	1	0.585960946751584
181.759880783684	6.03791410721897	Jitter1	Exp	Val	CueName2	Fem	1	0.585960946751584
187.780704078679	0.5	target	Exp	Val	Word	Fem	1	0.585960946751584
188.297603919385	5.31826356516467	Jitter2	Exp	Val	Word	Fem	1	0.585960946751584
193.634812086591	0.5	cue	Exp	Val	CueName2	Mas	1	0.495385519123374
194.151869030538	3.93641772727642	Jitter1	Exp	Val	CueName2	Mas	1	0.495385519123374
198.071229813868	0.5	target	Exp	Val	Word	Mas	1	0.495385519123374
198.588158399914	2.51840854413967	Jitter2	Exp	Val	Word	Mas	1	0.495385519123374
201.123410005599	0.5	cue	Exp	Inval	CueName2	Mas	1	0.542424564115208
201.640469511014	5.32074462953096	Jitter1	Exp	Inval	CueName2	Mas	1	0.542424564115208
206.94415463513	0.5	target	Exp	Inval	Face	Mas	1	0.542424564115208
207.461053337403	5.31837370820358	Jitter2	Exp	Inval	Face	Mas	1	0.542424564115208
212.798264066078	0.5	cue	Exp	Val	CueName2	Fem	1	1.0357731486074
213.315316740915	3.93647294109905	Jitter1	Exp	Val	CueName2	Fem	1	1.0357731486074
217.234737007177	0.5	target	Exp	Val	Word	Fem	1	1.0357731486074
217.751609525578	6.01841807848541	Jitter2	Exp	Val	Word	Fem	1	1.0357731486074
223.789312311856	0.5	cue	Exp	Val	CueFace2	Mas	1	0.516920047823078
224.306366125125	3.9197912519121	Jitter1	Exp	Val	CueFace2	Mas	1	0.516920047823078
228.209103563768	0.5	target	Exp	Val	Face	Mas	1	0.516920047823078
228.725975512956	3.91843894019985	Jitter2	Exp	Val	Face	Mas	1	0.516920047823078
232.662194442019	0.5	cue	Exp	Val	CueFace2	Mas	1	0.516965015784081
233.179251955182	3.2359623840166	Jitter1	Exp	Val	CueFace2	Mas	1	0.516965015784081
236.398156826035	0.5	target	Exp	Val	Face	Mas	1	0.516965015784081
236.915048697738	2.51840199816797	Jitter2	Exp	Val	Face	Mas	1	0.516965015784081
239.450290911376	0.5	cue	Exp	Val	CueFace2	Fem	1	0.530807177681709
239.967411322759	6.02128563959923	Jitter1	Exp	Val	CueFace2	Fem	1	0.530807177681709
245.971576550975	0.5	target	Exp	Val	Face	Fem	1	0.530807177681709
246.48844110037	3.21841449243584	Jitter2	Exp	Val	Face	Fem	1	0.530807177681709
249.724174517796	0.5	cue	Exp	Inval	CueFace2	Fem	1	0.60814921848214
250.241199301119	6.0379243530806	Jitter1	Exp	Inval	CueFace2	Fem	1	0.60814921848214
256.262098870877	0.5	target	Exp	Inval	Word	Fem	1	0.60814921848214
256.778994727079	3.21848763651724	Jitter2	Exp	Inval	Word	Fem	1	0.60814921848214
260.014693991627	0.5	cue	Exp	Inval	CueName2	Fem	1	0.598197354120202
260.531753212432	6.02131153886148	Jitter1	Exp	Inval	CueName2	Fem	1	0.598197354120202
266.536005530488	0.5	target	Exp	Inval	Face	Fem	1	0.598197354120202
267.052874064389	4.61851632493199	Jitter2	Exp	Inval	Face	Fem	1	0.598197354120202
271.689589889382	0.5	cue	Exp	Val	CueName2	Fem	1	0.60466733245994
272.20664996401	3.23590318569404	Jitter1	Exp	Val	CueName2	Fem	1	0.60466733245994
275.425493075076	0.5	target	Exp	Val	Word	Fem	1	0.60466733245994
275.942446706566	2.51851470267138	Jitter2	Exp	Val	Word	Fem	1	0.60466733245994
278.477682943452	0.5	cue	Exp	Val	CueName2	Mas	1	0.636964287186856
278.994673289289	2.53548882589166	Jitter1	Exp	Val	CueName2	Mas	1	0.636964287186856
281.513171769344	0.5	target	Exp	Val	Word	Mas	1	0.636964287186856
282.030052256752	3.91841844847295	Jitter2	Exp	Val	Word	Mas	1	0.636964287186856
285.966276308744	0.5	cue	Exp	Inval	CueFace2	Mas	1	0.555293938177783
286.483312476361	3.93648717146789	Jitter1	Exp	Inval	CueFace2	Mas	1	0.555293938177783
290.402763480211	0.5	target	Exp	Inval	Word	Mas	1	0.555293938177783
290.919625183535	4.61846822629741	Jitter2	Exp	Inval	Word	Mas	1	0.555293938177783
295.556338447062	0.5	cue	Exp	Val	CueFace2	Fem	1	0.516949931596173
296.073370914783	2.53546378044484	Jitter1	Exp	Val	CueFace2	Fem	1	0.516949931596173
298.591802227507	0.5	target	Exp	Val	Face	Fem	1	0.516949931596173
299.108704629678	5.31846165186653	Jitter2	Exp	Val	Face	Fem	1	0.516949931596173
304.445923611962	0.5	cue	Exp	Val	CueName2	Mas	1	0.516939970337262
304.962967463976	3.93644618801409	Jitter1	Exp	Val	CueName2	Mas	1	0.516939970337262
308.882369799976	0.5	target	Exp	Val	Word	Mas	1	0.516939970337262
309.399261387069	3.2185314660419	Jitter2	Exp	Val	Word	Mas	1	0.516939970337262
312.634961220829	0.5	cue	Exp	Val	CueName2	Mas	1	0.541421607900702
313.152077078495	5.33748010950512	Jitter1	Exp	Val	CueName2	Mas	1	0.541421607900702
318.472441330334	0.5	target	Exp	Val	Word	Mas	1	0.541421607900702
318.989322671561	4.61844716535416	Jitter2	Exp	Val	Word	Mas	1	0.541421607900702
323.626063257394	0.5	cue	Exp	Val	CueFace2	Mas	1	0.595521191433363
324.143102555689	4.62026708689882	Jitter1	Exp	Val	CueFace2	Mas	1	0.595521191433363
328.746330344293	0.5	target	Exp	Val	Face	Mas	1	0.595521191433363
329.2632031473	4.61851660954198	Jitter2	Exp	Val	Face	Mas	1	0.595521191433363
333.899899049782	0.5	cue	Exp	Val	CueName2	Mas	1	0.560933716944419
334.416938917289	4.6369479222667	Jitter1	Exp	Val	CueName2	Mas	1	0.560933716944419
339.036846972049	0.5	target	Exp	Val	Word	Mas	1	0.560933716944419
339.553743682074	5.31844713689134	Jitter2	Exp	Val	Word	Mas	1	0.560933716944419
344.890957256819	0.5	cue	Exp	Val	CueName2	Mas	1	0.719257072421897
345.407990862965	2.53549935635965	Jitter1	Exp	Val	CueName2	Mas	1	0.719257072421897
347.926456613179	0.5	target	Exp	Val	Word	Mas	1	0.719257072421897
348.443327708545	6.01841637083999	Jitter2	Exp	Val	Word	Mas	1	0.719257072421897
354.481026225712	0.5	cue	Exp	Val	CueName2	Fem	1	0.722739527660451
354.998054708929	6.03787283915153	Jitter1	Exp	Val	CueName2	Fem	1	0.722739527660451
361.018899064864	0.5	target	Exp	Val	Word	Fem	1	0.722739527660451
361.53584899646	5.31839733061133	Jitter2	Exp	Val	Word	Fem	1	0.722739527660451
366.873055456021	0.5	cue	Exp	Val	CueFace2	Fem	1	0.588236951534782
367.390085646883	4.62026737150882	Jitter1	Exp	Val	CueFace2	Fem	1	0.588236951534782
371.993322827529	0.5	target	Exp	Val	Face	Fem	1	0.588236951534782
372.510218683732	2.51851555649409	Jitter2	Exp	Val	Face	Fem	1	0.588236951534782
375.045456912871	0.5	cue	Exp	Val	CueFace2	Mas	1	0.582800382399
375.562539471477	6.02125404818071	Jitter1	Exp	Val	CueFace2	Mas	1	0.582800382399
381.566710961051	0.5	target	Exp	Val	Face	Mas	1	0.582800382399
382.083601978931	6.01849976078665	Jitter2	Exp	Val	Face	Mas	1	0.582800382399
388.121293665521	0.5	cue	Exp	Val	CueName2	Fem	1	0.584640084151033
388.63835715544	2.53546748034205	Jitter1	Exp	Val	CueName2	Fem	1	0.584640084151033
391.156761145863	0.5	target	Exp	Val	Word	Fem	1	0.584640084151033
391.673656432849	4.61837942881175	Jitter2	Exp	Val	Word	Fem	1	0.584640084151033
396.310383642136	0.5	cue	Exp	Val	CueName2	Fem	1	0.575107730990567
396.827444001374	3.23595441501311	Jitter1	Exp	Val	CueName2	Fem	1	0.575107730990567
400.046338057149	0.5	target	Exp	Val	Word	Fem	1	0.575107730990567
400.563236759426	6.01856038214828	Jitter2	Exp	Val	Word	Fem	1	0.575107730990567
406.600945237849	0.5	cue	Exp	Val	CueName2	Fem	1	0.54292262693707
407.117992220545	5.33742518029248	Jitter1	Exp	Val	CueName2	Fem	1	0.54292262693707
412.438370418142	0.5	target	Exp	Val	Word	Fem	1	0.54292262693707
412.955269689632	3.91850667674589	Jitter2	Exp	Val	Word	Fem	1	0.54292262693707
416.891491749375	0.5	cue	Exp	Inval	CueName2	Fem	0	0.469991715079232
417.408528770811	3.91979324416388	Jitter1	Exp	Inval	CueName2	Fem	0	0.469991715079232
421.311284993539	0.5	target	Exp	Inval	Face	Fem	0	0.469991715079232
421.828162634873	2.51853519439828	Jitter2	Exp	Inval	Face	Fem	0	0.469991715079232
424.363400579405	0.5	cue	Exp	Val	CueFace2	Fem	1	0.549999957311229
424.880427639582	3.91977958300777	Jitter1	Exp	Val	CueFace2	Fem	1	0.549999957311229
428.783180162412	0.5	target	Exp	Val	Face	Fem	1	0.549999957311229
429.30006178825	6.01850772979378	Jitter2	Exp	Val	Face	Fem	1	0.549999957311229
435.337768274421	0.5	cue	Exp	Val	CueFace2	Fem	1	0.551926179690781
435.854802734393	2.53546776494841	Jitter1	Exp	Val	CueFace2	Fem	1	0.551926179690781
438.37323603937	0.5	target	Exp	Val	Face	Fem	1	0.551926179690781
438.890135310859	4.61837686734361	Jitter2	Exp	Val	Face	Fem	1	0.551926179690781
443.526826375015	0.5	cue	Exp	Val	CueFace2	Fem	0	0.966272608849977
444.043957886086	3.23600251365133	Jitter1	Exp	Val	CueFace2	Fem	0	0.966272608849977
447.262828888666	0.5	target	Exp	Val	Face	Fem	0	0.966272608849977
447.779711368326	4.61830230022315	Jitter2	Exp	Val	Face	Fem	0	0.966272608849977
452.416446831223	0.5	cue	Exp	Inval	CueName2	Mas	1	0.628360323120432
452.933403878003	4.62026850993789	Jitter1	Exp	Inval	CueName2	Mas	1	0.628360323120432
457.536715341161	0.5	target	Exp	Inval	Face	Mas	1	0.628360323120432
458.053586151917	3.21844921452794	Jitter2	Exp	Inval	Face	Mas	1	0.628360323120432
461.289310461907	0.5	cue	Exp	Inval	CueFace2	Mas	1	0.550224227881699
461.806388182191	5.33744538741303	Jitter1	Exp	Inval	CueFace2	Mas	1	0.550224227881699
467.12675584932	0.5	target	Exp	Inval	Word	Mas	1	0.550224227881699
467.643648574842	2.51850217995161	Jitter2	Exp	Inval	Word	Mas	1	0.550224227881699
