onset	duration	section	btype	validity	stim	gender	accuracy	reaction_time
10.063074855072	0.5	cue	Exp	Inval	CueFace2	Fem	1	0.551753854946583
10.5801492086612	4.63695941174956	Jitter1	Exp	Inval	CueFace2	Fem	1	0.551753854946583
15.2000342668216	0.5	target	Exp	Inval	Word	Fem	1	0.551753854946583
15.7169498090734	2.5184865791598	Jitter2	Exp	Inval	Word	Fem	1	0.551753854946583
18.2521841539892	0.5	cue	Exp	Val	CueName1	Mas	1	0.617586847460188
18.7691799557324	6.03793982985371	Jitter1	Exp	Val	CueName1	Mas	1	0.617586847460188
24.7901239838429	0.5	target	Exp	Val	Word	Mas	1	0.617586847460188
25.3070474951237	6.01840731579432	Jitter2	Exp	Val	Word	Mas	1	0.617586847460188
31.3447486810546	0.5	cue	Exp	Val	CueFace2	Mas	1	0.554184693035495
31.8617755050873	5.320787664401	Jitter1	Exp	Val	CueFace2	Mas	1	0.554184693035495
37.1655363454556	0.5	target	Exp	Val	Face	Mas	1	0.554184693035495
37.6824424956394	3.21841596788363	Jitter2	Exp	Val	Face	Mas	1	0.554184693035495
40.918172884074	0.5	cue	Exp	Inval	CueName1	Mas	1	0.520195935623633
41.4351991388903	6.02126663143281	Jitter1	Exp	Inval	CueName1	Mas	1	0.520195935623633
47.4394395155068	0.5	target	Exp	Inval	Face	Mas	1	0.520195935623633
47.9563519270669	6.01842012316411	Jitter2	Exp	Inval	Face	Mas	1	0.520195935623633
53.9940639281122	0.5	cue	Exp	Val	CueFace2	Fem	1	0.53710393575966
54.5110856291976	3.93645852988993	Jitter1	Exp	Val	CueFace2	Fem	1	0.53710393575966
58.4305224580021	0.5	target	Exp	Val	Face	Fem	1	0.53710393575966
58.9474445462401	6.01853823553756	Jitter2	Exp	Val	Face	Fem	1	0.53710393575966
64.9851477244301	0.5	cue	Exp	Inval	CueFace2	Mas	1	0.545031979992928
65.502181379059	5.33744748624304	Jitter1	Exp	Inval	CueFace2	Mas	1	0.545031979992928
70.8225952106732	0.5	target	Exp	Inval	Word	Mas	1	0.545031979992928
71.3395170143012	5.31840819807985	Jitter2	Exp	Inval	Word	Mas	1	0.545031979992928
76.6767326872177	0.5	cue	Exp	Inval	CueName1	Fem	1	0.75134441768023
77.1937643495876	2.53550628798985	Jitter1	Exp	Inval	CueName1	Fem	1	0.75134441768023
79.7122389752076	0.5	target	Exp	Inval	Face	Fem	1	0.75134441768023
80.2291018649521	3.91842077776164	Jitter2	Exp	Inval	Face	Fem	1	0.75134441768023
84.1652873133389	0.5	cue	Exp	Val	CueFace2	Fem	1	0.573420218504907
84.6823855740113	5.32083519395746	Jitter1	Exp	Val	CueFace2	Fem	1	0.573420218504907
89.9861225072964	0.5	target	Exp	Val	Face	Fem	1	0.573420218504907
90.5030431724954	2.51846324129292	Jitter2	Exp	Val	Face	Fem	1	0.573420218504907
93.0383176471587	0.5	cue	Exp	Val	CueFace2	Mas	1	0.540768834725895
93.5552400200031	3.9364152694543	Jitter1	Exp	Val	CueFace2	Mas	1	0.540768834725895
97.474732916613	0.5	target	Exp	Val	Face	Mas	1	0.540768834725895
97.991670373689	4.61836183541527	Jitter2	Exp	Val	Face	Mas	1	0.540768834725895
102.62839484142	0.5	cue	Exp	Val	CueFace2	Fem	0	0.546866279426467
103.145404873572	4.62025775251459	Jitter1	Exp	Val	CueFace2	Fem	0	0.546866279426467
107.748652593935	0.5	target	Exp	Val	Face	Fem	0	0.546866279426467
108.265570982265	4.618399119081	Jitter2	Exp	Val	Face	Fem	0	0.546866279426467
112.902283781066	0.5	cue	Exp	Val	CueFace2	Mas	1	0.477785338865942
113.4193211356	2.53541265191234	Jitter1	Exp	Val	CueFace2	Mas	1	0.477785338865942
115.937696432979	0.5	target	Exp	Val	Face	Mas	1	0.477785338865942
116.454674304412	4.61841164183716	Jitter2	Exp	Val	Face	Mas	1	0.477785338865942
121.091396779888	0.5	cue	Exp	Val	CueFace2	Fem	1	0.628039081253519
121.608471702693	3.23597387069458	Jitter1	Exp	Val	CueFace2	Fem	1	0.628039081253519
124.827370650582	0.5	target	Exp	Val	Face	Fem	1	0.628039081253519
125.344283346752	5.31841787475787	Jitter2	Exp	Val	Face	Fem	1	0.628039081253519
130.681495888977	0.5	cue	Exp	Val	CueName1	Fem	1	0.627949429686851
131.198534381943	6.03793612995287	Jitter1	Exp	Val	CueName1	Fem	1	0.627949429686851
137.21943201893	0.5	target	Exp	Val	Word	Fem	1	0.627949429686851
137.736344145884	5.31852261054883	Jitter2	Exp	Val	Word	Fem	1	0.627949429686851
143.073615317382	0.5	cue	Exp	Val	CueName1	Fem	1	0.538233545452385
143.590616526682	2.53547071197318	Jitter1	Exp	Val	CueName1	Fem	1	0.538233545452385
146.109086029355	0.5	target	Exp	Val	Word	Fem	1	0.538233545452385
146.625968272456	3.21852525740542	Jitter2	Exp	Val	Word	Fem	1	0.538233545452385
149.86169439177	0.5	cue	Exp	Val	CueFace2	Fem	1	0.516974456135358
150.378777283604	6.02130306127219	Jitter1	Exp	Val	CueFace2	Fem	1	0.516974456135358
156.382997453042	0.5	target	Exp	Val	Face	Fem	1	0.516974456135358
156.899893926548	3.21838466098779	Jitter2	Exp	Val	Face	Fem	1	0.516974456135358
160.135607807711	0.5	cue	Exp	Val	CueName1	Fem	1	0.534789502402418
160.652630078013	4.63695998096591	Jitter1	Exp	Val	CueName1	Fem	1	0.534789502402418
165.272567788677	0.5	target	Exp	Val	Word	Fem	1	0.534789502402418
165.789477354159	6.01848729067933	Jitter2	Exp	Val	Word	Fem	1	0.534789502402418
171.827121333856	0.5	cue	Exp	Val	CueName1	Mas	1	0.580120747850742
172.344188572246	3.23603306918812	Jitter1	Exp	Val	CueName1	Mas	1	0.580120747850742
175.563154403044	0.5	target	Exp	Val	Word	Mas	1	0.580120747850742
176.080078768147	3.91839260155757	Jitter2	Exp	Val	Word	Mas	1	0.580120747850742
180.016230632773	0.5	cue	Exp	Val	CueFace2	Mas	1	0.493635735168937
180.533293317432	6.0213446140624	Jitter1	Exp	Val	CueFace2	Mas	1	0.493635735168937
186.537575246835	0.5	target	Exp	Val	Face	Mas	1	0.493635735168937
187.054494204382	3.91838577096132	Jitter2	Exp	Val	Face	Mas	1	0.493635735168937
190.990705552107	0.5	cue	Exp	Val	CueFace2	Fem	1	0.517053292587661
191.507745468116	2.53540980583421	Jitter1	Exp	Val	CueFace2	Fem	1	0.517053292587661
194.026115357941	0.5	target	Exp	Val	Face	Fem	1	0.517053292587661
194.543104044482	3.91839687067841	Jitter2	Exp	Val	Face	Fem	1	0.517053292587661
198.479319092112	0.5	cue	Exp	Val	CueName1	Fem	1	0.541944266326027
198.996347054577	6.03794751427631	Jitter1	Exp	Val	CueName1	Fem	1	0.541944266326027
205.017266606388	0.5	target	Exp	Val	Word	Fem	1	0.541944266326027
205.534186417761	5.31849870346923	Jitter2	Exp	Val	Word	Fem	1	0.541944266326027
210.871395260081	0.5	cue	Exp	Val	CueName1	Mas	1	0.852278131595085
211.388423791763	2.53548551159474	Jitter1	Exp	Val	CueName1	Mas	1	0.852278131595085
213.906880771676	0.5	target	Exp	Val	Word	Mas	1	0.852278131595085
214.423787491076	4.61835671246808	Jitter2	Exp	Val	Word	Mas	1	0.852278131595085
219.060506551254	0.5	cue	Exp	Val	CueFace2	Mas	1	0.622146269797668
219.577531667637	3.93645710685087	Jitter1	Exp	Val	CueFace2	Mas	1	0.622146269797668
223.496963658105	0.5	target	Exp	Val	Face	Mas	1	0.622146269797668
224.013894569194	2.51840062750489	Jitter2	Exp	Val	Face	Mas	1	0.622146269797668
226.549092484267	0.5	cue	Exp	Val	CueName1	Fem	1	0.493505100035691
227.066123862031	3.93649695199201	Jitter1	Exp	Val	CueName1	Fem	1	0.493505100035691
230.985589436259	0.5	target	Exp	Val	Word	Fem	1	0.493505100035691
231.502497009482	3.91843301590779	Jitter2	Exp	Val	Word	Fem	1	0.493505100035691
235.438727995166	0.5	cue	Exp	Val	CueName1	Fem	1	0.736432374404103
235.95576392666	3.23590300327123	Jitter1	Exp	Val	CueName1	Fem	1	0.736432374404103
239.174630998437	0.5	target	Exp	Val	Word	Fem	1	0.736432374404103
239.691615131251	4.61840168055278	Jitter2	Exp	Val	Word	Fem	1	0.736432374404103
244.328329637698	0.5	cue	Exp	Inval	CueName1	Fem	1	0.634225323690771
244.845365569192	3.93647589098691	Jitter1	Exp	Inval	CueName1	Fem	1	0.634225323690771
248.764805528685	0.5	target	Exp	Inval	Face	Fem	1	0.634225323690771
249.281719647894	4.61840737271996	Jitter2	Exp	Inval	Face	Fem	1	0.634225323690771
253.918431023652	0.5	cue	Exp	Val	CueFace2	Mas	1	0.624308722413844
254.435457847685	4.62027909812241	Jitter1	Exp	Val	CueFace2	Mas	1	0.624308722413844
259.038710121775	0.5	target	Exp	Val	Face	Mas	1	0.624308722413844
259.555632210013	6.01840276206713	Jitter2	Exp	Val	Face	Mas	1	0.624308722413844
265.593332542125	0.5	cue	Exp	Val	CueName1	Fem	1	0.528193139634823
266.110375873428	5.33744264790221	Jitter1	Exp	Val	CueName1	Fem	1	0.528193139634823
271.430775190027	0.5	target	Exp	Val	Word	Fem	1	0.528193139634823
271.947702685819	2.51842197311635	Jitter2	Exp	Val	Word	Fem	1	0.528193139634823
274.482971183712	0.5	cue	Exp	Val	CueName1	Fem	1	0.615544499480166
274.999971539186	3.936460237539	Jitter1	Exp	Val	CueName1	Fem	1	0.615544499480166
278.919431421251	0.5	target	Exp	Val	Word	Fem	1	0.615544499480166
279.436334156137	2.5184088811402	Jitter2	Exp	Val	Word	Fem	1	0.615544499480166
281.971549716916	0.5	cue	Exp	Val	CueName1	Mas	1	0.669968121044803
282.488585933017	5.33741532552085	Jitter1	Exp	Val	CueName1	Mas	1	0.669968121044803
287.808965042437	0.5	target	Exp	Val	Word	Mas	1	0.669968121044803
288.325919576004	5.31840734425714	Jitter2	Exp	Val	Word	Mas	1	0.669968121044803
293.663138094998	0.5	cue	Exp	Val	CueFace2	Fem	1	0.558462353314098
294.180169472762	6.02126463917739	Jitter1	Exp	Val	CueFace2	Fem	1	0.558462353314098
300.184402734176	0.5	target	Exp	Val	Face	Fem	1	0.558462353314098
300.701322830155	3.21830610914185	Jitter2	Exp	Val	Face	Fem	1	0.558462353314098
303.937046672603	0.5	cue	Exp	Val	CueName1	Mas	1	0.649371314859309
304.454009744415	3.93646308362077	Jitter1	Exp	Val	CueName1	Mas	1	0.649371314859309
308.373509756224	0.5	target	Exp	Val	Word	Mas	1	0.649371314859309
308.890433552111	3.21840486816654	Jitter2	Exp	Val	Word	Mas	1	0.649371314859309
312.126199801172	0.5	cue	Exp	Inval	CueFace2	Fem	1	0.605180494210799
312.643193610664	2.53544566645724	Jitter1	Exp	Inval	CueFace2	Fem	1	0.605180494210799
315.16164546763	0.5	target	Exp	Inval	Word	Fem	1	0.605180494210799
315.678525718475	6.01850066726183	Jitter2	Exp	Inval	Word	Fem	1	0.605180494210799
321.716261057383	0.5	cue	Exp	Val	CueName1	Mas	1	0.665557264153904
322.2332873122	4.63695485801873	Jitter1	Exp	Val	CueName1	Mas	1	0.665557264153904
326.853215915402	0.5	target	Exp	Val	Word	Mas	1	0.665557264153904
327.370128042356	2.51834740578124	Jitter2	Exp	Val	Word	Mas	1	0.665557264153904
329.905364664137	0.5	cue	Exp	Val	CueFace2	Mas	1	0.845421636993706
330.422392341992	3.23597074000645	Jitter1	Exp	Val	CueFace2	Mas	1	0.845421636993706
333.641335404143	0.5	target	Exp	Val	Face	Mas	1	0.845421636993706
334.158272007397	5.31839169080922	Jitter2	Exp	Val	Face	Mas	1	0.845421636993706
339.495399167179	0.5	cue	Exp	Val	CueFace2	Mas	1	0.535323142656125
340.012464982527	3.23603534605354	Jitter1	Exp	Val	CueFace2	Mas	1	0.535323142656125
343.231434513233	0.5	target	Exp	Val	Face	Mas	1	0.535323142656125
343.748349486268	2.51831097594186	Jitter2	Exp	Val	Face	Mas	1	0.535323142656125
346.283536017017	0.5	cue	Exp	Val	CueName1	Mas	1	0.591692630041507
346.800621754934	2.53553104889943	Jitter1	Exp	Val	CueName1	Mas	1	0.591692630041507
349.319067065917	0.5	target	Exp	Val	Word	Mas	1	0.591692630041507
349.835976062179	6.01843492278567	Jitter2	Exp	Val	Word	Mas	1	0.591692630041507
355.873672409776	0.5	cue	Exp	Inval	CueFace2	Fem	1	0.664543489972857
356.390717733335	3.93648016010775	Jitter1	Exp	Inval	CueFace2	Fem	1	0.664543489972857
360.310152569884	0.5	target	Exp	Inval	Word	Fem	1	0.664543489972857
360.827073804299	3.21840629120561	Jitter2	Exp	Inval	Word	Fem	1	0.664543489972857
364.062803054301	0.5	cue	Exp	Val	CueName1	Mas	1	0.895849644937698
364.57980141752	3.23596362480384	Jitter1	Exp	Val	CueName1	Mas	1	0.895849644937698
367.798766679105	0.5	target	Exp	Val	Word	Mas	1	0.895849644937698
368.31566514487	3.21843418279968	Jitter2	Exp	Val	Word	Mas	1	0.895849644937698
371.551393825655	0.5	cue	Exp	Inval	CueName1	Fem	0	1.00723502342225
372.068439718434	3.23598838570979	Jitter1	Exp	Inval	CueName1	Fem	0	1.00723502342225
375.287382211365	0.5	target	Exp	Inval	Face	Fem	0	1.00723502342225
375.804310276377	5.31846227362621	Jitter2	Exp	Inval	Face	Fem	0	1.00723502342225
381.141486388758	0.5	cue	Exp	Inval	CueName1	Mas	1	0.784776481577865
381.658549073418	4.62031125884096	Jitter1	Exp	Inval	CueName1	Mas	1	0.784776481577865
386.261797647599	0.5	target	Exp	Inval	Face	Mas	1	0.784776481577865
386.778709205337	3.21841482945092	Jitter2	Exp	Inval	Face	Mas	1	0.784776481577865
390.014376979983	0.5	cue	Exp	Val	CueName1	Fem	1	0.618656120230298
390.531442795331	5.33752290739722	Jitter1	Exp	Val	CueName1	Fem	1	0.618656120230298
395.851899887381	0.5	target	Exp	Val	Word	Fem	1	0.618656120230298
396.368823398661	4.61848962446675	Jitter2	Exp	Val	Word	Fem	1	0.618656120230298
401.005529936079	0.5	cue	Exp	Val	CueFace2	Mas	1	0.552714692010341
401.522556475506	4.62028279803053	Jitter1	Exp	Val	CueFace2	Mas	1	0.552714692010341
406.12581273411	0.5	target	Exp	Val	Face	Mas	1	0.552714692010341
406.642733399305	6.01855331976913	Jitter2	Exp	Val	Face	Mas	1	0.552714692010341
412.680477561069	0.5	cue	Exp	Val	CueName1	Mas	1	0.765131404998101
413.19746482457	4.63690818228497	Jitter1	Exp	Val	CueName1	Mas	1	0.765131404998101
417.817385743354	0.5	target	Exp	Val	Word	Mas	1	0.765131404998101
418.334320354348	3.91838690939403	Jitter2	Exp	Val	Word	Mas	1	0.765131404998101
422.270532840506	0.5	cue	Exp	Val	CueFace2	Fem	1	0.667172699933872
422.787565356703	5.3207814030211	Jitter1	Exp	Val	CueFace2	Fem	1	0.667172699933872
428.091314243527	0.5	target	Exp	Val	Face	Fem	1	0.667172699933872
428.60822836274	5.31859803170664	Jitter2	Exp	Val	Face	Fem	1	0.667172699933872
433.945441189571	0.5	cue	Exp	Inval	CueFace2	Mas	1	0.909018463382381
434.462467444388	3.23596817853468	Jitter1	Exp	Inval	CueFace2	Mas	1	0.909018463382381
437.681409368106	0.5	target	Exp	Inval	Word	Mas	1	0.909018463382381
438.198328325656	4.61831515967788	Jitter2	Exp	Inval	Word	Mas	1	0.909018463382381
442.835038562982	0.5	cue	Exp	Val	CueFace2	Fem	1	0.65585838809784
443.352155038574	2.53547099657953	Jitter1	Exp	Val	CueFace2	Fem	1	0.65585838809784
445.870509559561	0.5	target	Exp	Val	Face	Fem	1	0.65585838809784
446.387430793977	3.91854059778416	Jitter2	Exp	Val	Face	Fem	1	0.65585838809784
450.323657795147	0.5	cue	Exp	Inval	CueName1	Mas	1	0.597922417531663
450.840694580464	5.32077798772298	Jitter1	Exp	Inval	CueName1	Mas	1	0.597922417531663
456.14443578287	0.5	target	Exp	Inval	Face	Mas	1	0.597922417531663
456.661347340607	2.5185207321374	Jitter2	Exp	Inval	Face	Mas	1	0.597922417531663
459.196637184112	0.5	cue	Exp	Inval	CueFace2	Mas	0	0.591831234207348
459.713564964513	6.03787693145568	Jitter1	Exp	Inval	CueFace2	Mas	0	0.591831234207348
465.734514115567	0.5	target	Exp	Inval	Word	Mas	0	0.591831234207348
466.251450149604	3.91853149032613	Jitter2	Exp	Inval	Word	Mas	0	0.591831234207348
