onset	duration	section	btype	validity	stim	gender	accuracy	reaction_time
10.0607625256398	0.5	cue	Exp	Val	CueFace1	Mas	1	0.79498681271798
10.5777890166046	3.23599739072051	Jitter1	Exp	Val	CueFace1	Mas	1	0.79498681271798
13.7967599163603	0.5	target	Exp	Val	Face	Mas	1	0.79498681271798
14.313626458008	3.91835270418233	Jitter2	Exp	Val	Face	Mas	1	0.79498681271798
18.2497642739818	0.5	cue	Exp	Val	CueName1	Mas	1	0.875904659962544
18.766834879083	6.03798810512126	Jitter1	Exp	Val	CueName1	Mas	1	0.875904659962544
24.787752379103	0.5	target	Exp	Val	Word	Mas	1	0.875904659962544
25.3046718577152	5.31846478254738	Jitter2	Exp	Val	Word	Mas	1	0.875904659962544
30.6418988090045	0.5	cue	Exp	Val	CueName1	Fem	1	0.850328422624443
31.1589013929533	2.53543161981543	Jitter1	Exp	Val	CueName1	Fem	1	0.850328422624443
33.6773304288199	0.5	target	Exp	Val	Word	Fem	1	0.850328422624443
34.1942484843948	3.91838970313438	Jitter2	Exp	Val	Word	Fem	1	0.850328422624443
38.1304486293739	0.5	cue	Exp	Val	CueName1	Mas	1	0.864677185563778
38.6474825201294	3.93644305733142	Jitter1	Exp	Val	CueName1	Mas	1	0.864677185563778
42.5668916867053	0.5	target	Exp	Val	Word	Mas	1	0.864677185563778
43.0838142959965	4.61829575425691	Jitter2	Exp	Val	Word	Mas	1	0.864677185563778
47.7205218673771	0.5	cue	Exp	Val	CueName1	Mas	1	0.839035773147771
48.2375483583419	3.2359438845433	Jitter1	Exp	Val	CueName1	Mas	1	0.839035773147771
51.4564657519204	0.5	target	Exp	Val	Word	Mas	1	0.839035773147771
51.9733872227825	6.01839900979394	Jitter2	Exp	Val	Word	Mas	1	0.839035773147771
58.0110709403689	0.5	cue	Exp	Val	CueName1	Fem	1	0.878955935102567
58.5281381301811	5.33741664207082	Jitter1	Exp	Val	CueName1	Fem	1	0.878955935102567
63.8484875824397	0.5	target	Exp	Val	Word	Fem	1	0.878955935102567
64.365439790894	3.21838147798189	Jitter2	Exp	Val	Word	Fem	1	0.878955935102567
67.6010670497853	0.5	cue	Exp	Val	CueFace1	Fem	1	0.758000667688975
68.1181672540479	4.62033055433312	Jitter1	Exp	Val	CueFace1	Fem	1	0.758000667688975
72.7213976041185	0.5	target	Exp	Val	Face	Fem	1	0.758000667688975
73.2383148058707	3.21840424656875	Jitter2	Exp	Val	Face	Fem	1	0.758000667688975
76.4740280161768	0.5	cue	Exp	Inval	CueFace1	Mas	1	0.861347564457901
76.9910297463048	3.23595555344218	Jitter1	Exp	Inval	CueFace1	Mas	1	0.861347564457901
80.209983569619	0.5	target	Exp	Inval	Word	Mas	1	0.861347564457901
80.7269039020521	2.51840512885065	Jitter2	Exp	Inval	Word	Mas	1	0.861347564457901
83.262130746898	0.5	cue	Exp	Val	CueFace1	Fem	1	0.876683060998403
83.7791518303238	3.93651164769653	Jitter1	Exp	Val	CueFace1	Fem	1	0.876683060998403
87.6986423945946	0.5	target	Exp	Val	Face	Fem	1	0.876683060998403
88.2154855984427	3.91850041538419	Jitter2	Exp	Val	Face	Fem	1	0.876683060998403
92.1517002583951	0.5	cue	Exp	Val	CueName1	Fem	1	0.818129657422105
92.6687313030779	5.33745136416474	Jitter1	Exp	Val	CueName1	Fem	1	0.818129657422105
97.9891516225598	0.5	target	Exp	Val	Word	Fem	1	0.818129657422105
98.5060528863032	3.91839340302977	Jitter2	Exp	Val	Word	Fem	1	0.818129657422105
102.442264415575	0.5	cue	Exp	Val	CueFace1	Fem	1	0.859663542911221
102.959289198896	6.02123839478008	Jitter1	Exp	Val	CueFace1	Fem	1	0.859663542911221
108.963502810355	0.5	target	Exp	Val	Face	Fem	1	0.859663542911221
109.480408912421	5.31845026757401	Jitter2	Exp	Val	Face	Fem	1	0.859663542911221
114.817603418476	0.5	cue	Exp	Val	CueName1	Mas	1	0.832054640053684
115.334603725567	5.33743969526404	Jitter1	Exp	Val	CueName1	Mas	1	0.832054640053684
120.65504311374	0.5	target	Exp	Val	Word	Mas	1	0.832054640053684
121.171955761776	3.21829979568065	Jitter2	Exp	Val	Word	Mas	1	0.832054640053684
124.4076658414	0.5	cue	Exp	Val	CueName1	Fem	1	0.862448140987908
124.924762914983	4.63695446823658	Jitter1	Exp	Val	CueName1	Fem	1	0.862448140987908
129.544620309636	0.5	target	Exp	Val	Word	Fem	1	0.862448140987908
130.061527550131	5.31840899951203	Jitter2	Exp	Val	Word	Fem	1	0.862448140987908
135.398652327391	0.5	cue	Exp	Val	CueFace1	Mas	1	0.82752312221055
135.915712971235	5.3208203350805	Jitter1	Exp	Val	CueFace1	Mas	1	0.82752312221055
141.219472662471	0.5	target	Exp	Val	Face	Mas	1	0.82752312221055
141.736385310505	3.21826393515767	Jitter2	Exp	Val	Face	Mas	1	0.82752312221055
144.972027653586	0.5	cue	Exp	Val	CueFace1	Fem	1	0.863360307466792
145.489136111461	2.53554005520891	Jitter1	Exp	Val	CueFace1	Fem	1	0.863360307466792
148.007567708795	0.5	target	Exp	Val	Face	Fem	1	0.863360307466792
148.524482633688	3.918405641145	Jitter2	Exp	Val	Face	Fem	1	0.863360307466792
152.460686478562	0.5	cue	Exp	Val	CueFace1	Mas	1	0.800874199861937
152.977715530993	6.02125604043431	Jitter1	Exp	Val	CueFace1	Mas	1	0.800874199861937
158.981942518996	0.5	target	Exp	Val	Face	Mas	1	0.800874199861937
159.498850613314	2.51840683649607	Jitter2	Exp	Val	Face	Mas	1	0.800874199861937
162.034067496905	0.5	cue	Exp	Val	CueName1	Mas	1	0.745350441269693
162.551113910382	2.53542507384736	Jitter1	Exp	Val	CueName1	Mas	1	0.745350441269693
165.069492570752	0.5	target	Exp	Val	Word	Mas	1	0.745350441269693
165.586465840148	4.61838853624431	Jitter2	Exp	Val	Word	Mas	1	0.745350441269693
170.22316259645	0.5	cue	Exp	Val	CueName1	Fem	1	0.655695718338393
170.74013529663	3.23594359993513	Jitter1	Exp	Val	CueName1	Fem	1	0.655695718338393
173.959106196386	0.5	target	Exp	Val	Word	Fem	1	0.655695718338393
174.476025105781	3.21842160761662	Jitter2	Exp	Val	Word	Fem	1	0.655695718338393
177.711747138914	0.5	cue	Exp	Val	CueFace1	Mas	1	0.762531331709397
178.228777898988	3.93645159555126	Jitter1	Exp	Val	CueFace1	Mas	1	0.762531331709397
182.148198734465	0.5	target	Exp	Val	Face	Mas	1	0.762531331709397
182.665105690354	5.31841526087192	Jitter2	Exp	Val	Face	Mas	1	0.762531331709397
188.002311011485	0.5	cue	Exp	Inval	CueFace1	Mas	1	0.858422939578304
188.51934404842	6.037917237898	Jitter1	Exp	Inval	CueFace1	Mas	1	0.858422939578304
194.540228249383	0.5	target	Exp	Inval	Word	Mas	1	0.858422939578304
195.057136912916	5.31840729186661	Jitter2	Exp	Inval	Word	Mas	1	0.858422939578304
200.394333695829	0.5	cue	Exp	Val	CueName1	Fem	1	0.79637711950636
200.911341402711	3.23589094757881	Jitter1	Exp	Val	CueName1	Fem	1	0.79637711950636
204.130224643408	0.5	target	Exp	Val	Word	Fem	1	0.79637711950636
204.647208727882	5.31841696851734	Jitter2	Exp	Val	Word	Fem	1	0.79637711950636
209.984406933831	0.5	cue	Exp	Inval	CueName1	Mas	1	0.793320436827344
210.50147981579	5.32074832942635	Jitter1	Exp	Inval	CueName1	Mas	1	0.793320436827344
215.805155263257	0.5	target	Exp	Inval	Face	Mas	1	0.793320436827344
216.322099502706	3.21836155546953	Jitter2	Exp	Inval	Face	Mas	1	0.793320436827344
219.55778624453	0.5	cue	Exp	Val	CueFace1	Fem	1	0.756291885303654
220.074812735495	3.93644391115413	Jitter1	Exp	Val	CueFace1	Fem	1	0.756291885303654
223.994230155684	0.5	target	Exp	Val	Face	Fem	1	0.756291885303654
224.511145934399	4.61841187404571	Jitter2	Exp	Val	Face	Fem	1	0.756291885303654
229.147822768187	0.5	cue	Exp	Inval	CueName1	Fem	1	0.799168263549291
229.664878858315	2.53549394882248	Jitter1	Exp	Inval	CueName1	Fem	1	0.799168263549291
232.18331671701	0.5	target	Exp	Inval	Face	Fem	1	0.799168263549291
232.700229365044	2.51840285199251	Jitter2	Exp	Inval	Face	Fem	1	0.799168263549291
235.235447102456	0.5	cue	Exp	Val	CueName1	Mas	1	0.833956386204591
235.752480993211	4.63694308394224	Jitter1	Exp	Val	CueName1	Mas	1	0.833956386204591
240.372390186398	0.5	target	Exp	Val	Word	Mas	1	0.833956386204591
240.889308811187	2.51839943670529	Jitter2	Exp	Val	Word	Mas	1	0.833956386204591
243.424548178755	0.5	cue	Exp	Inval	CueName1	Mas	1	0.757864340779633
243.941544501344	3.23593790778978	Jitter1	Exp	Inval	CueName1	Mas	1	0.757864340779633
247.160486086545	0.5	target	Exp	Inval	Face	Mas	1	0.757864340779633
247.677399873008	6.01842633209708	Jitter2	Exp	Inval	Face	Mas	1	0.757864340779633
253.715097251747	0.5	cue	Exp	Val	CueName1	Fem	1	0.834225909342422
254.232161026272	4.63693141504154	Jitter1	Exp	Val	CueName1	Fem	1	0.834225909342422
258.852028666788	0.5	target	Exp	Val	Word	Fem	1	0.834225909342422
259.368948430007	6.01841181712371	Jitter2	Exp	Val	Word	Fem	1	0.834225909342422
265.406628732306	0.5	cue	Exp	Val	CueName1	Mas	1	0.763097700288199
265.923654369448	3.93644647261863	Jitter1	Exp	Val	CueName1	Mas	1	0.763097700288199
269.843075204924	0.5	target	Exp	Val	Word	Mas	1	0.763097700288199
270.359995252749	6.01828402843421	Jitter2	Exp	Val	Word	Mas	1	0.763097700288199
276.397613510651	0.5	cue	Exp	Inval	CueFace1	Fem	1	0.879557879596177
276.914671023815	4.63696983703085	Jitter1	Exp	Inval	CueFace1	Fem	1	0.879557879596177
281.534583347682	0.5	target	Exp	Inval	Word	Fem	1	0.879557879596177
282.051535840743	3.91840763339678	Jitter2	Exp	Inval	Word	Fem	1	0.879557879596177
285.987740254832	0.5	cue	Exp	Val	CueFace1	Fem	1	0.858355203035899
286.504761907472	3.2359598225521	Jitter1	Exp	Val	CueFace1	Fem	1	0.858355203035899
289.723700077384	0.5	target	Exp	Val	Face	Fem	1	0.858355203035899
290.240624109712	6.01850232225297	Jitter2	Exp	Val	Face	Fem	1	0.858355203035899
296.27829815065	0.5	cue	Exp	Val	CueName1	Fem	1	0.787195687174972
296.79533061837	3.93646269523742	Jitter1	Exp	Val	CueName1	Fem	1	0.787195687174972
300.714760845887	0.5	target	Exp	Val	Word	Fem	1	0.787195687174972
301.231650440728	2.51830039335618	Jitter2	Exp	Val	Word	Fem	1	0.787195687174972
303.766945306726	0.5	cue	Exp	Val	CueFace1	Mas	1	0.758842251550959
304.283916868477	4.62020475789359	Jitter1	Exp	Val	CueFace1	Mas	1	0.758842251550959
308.88715006462	0.5	target	Exp	Val	Face	Mas	1	0.758842251550959
309.404057020509	5.31845169060944	Jitter2	Exp	Val	Face	Mas	1	0.758842251550959
314.741186351484	0.5	cue	Exp	Val	CueFace1	Mas	1	0.811212845581395
315.259073495004	5.33749633212392	Jitter1	Exp	Val	CueFace1	Mas	1	0.811212845581395
320.578682683608	0.5	target	Exp	Val	Face	Mas	1	0.811212845581395
321.095595900857	2.51840199817161	Jitter2	Exp	Val	Face	Mas	1	0.811212845581395
323.630823030311	0.5	cue	Exp	Inval	CueFace1	Fem	1	0.857650230689615
324.14785009049	5.33736797421807	Jitter1	Exp	Inval	CueFace1	Fem	1	0.857650230689615
329.468191004529	0.5	target	Exp	Inval	Word	Fem	1	0.857650230689615
329.985171958324	6.01840100204572	Jitter2	Exp	Inval	Word	Fem	1	0.857650230689615
336.022854252873	0.5	cue	Exp	Val	CueFace1	Mas	1	0.822631291493963
336.539957587816	4.62028103265766	Jitter1	Exp	Val	CueFace1	Mas	1	0.822631291493963
341.143135285531	0.5	target	Exp	Val	Face	Mas	1	0.822631291493963
341.660037403095	6.01840214047479	Jitter2	Exp	Val	Face	Mas	1	0.822631291493963
347.697715143928	0.5	cue	Exp	Val	CueFace1	Fem	1	0.903208179159265
348.214741919501	5.32075800607527	Jitter1	Exp	Val	CueFace1	Fem	1	0.903208179159265
353.518473150003	0.5	target	Exp	Val	Face	Fem	1	0.903208179159265
354.035381813535	6.01834294215041	Jitter2	Exp	Val	Face	Fem	1	0.903208179159265
360.073043331749	0.5	cue	Exp	Val	CueFace1	Mas	1	0.81706294916512
360.590105683239	2.53547402630829	Jitter1	Exp	Val	CueFace1	Mas	1	0.81706294916512
363.108517358058	0.5	target	Exp	Val	Face	Mas	1	0.81706294916512
363.625482373842	3.21837322437023	Jitter2	Exp	Val	Face	Mas	1	0.81706294916512
366.861167123414	0.5	cue	Exp	Val	CueName1	Mas	1	0.798462152773936
367.378189345269	6.03793801423308	Jitter1	Exp	Val	CueName1	Mas	1	0.798462152773936
373.399105137647	0.5	target	Exp	Val	Word	Mas	1	0.798462152773936
373.91601038589	2.5183940291663	Jitter2	Exp	Val	Word	Mas	1	0.798462152773936
376.45119539346	0.5	cue	Exp	Inval	CueName1	Fem	1	0.865057420951416
376.968254898875	6.02127909362753	Jitter1	Exp	Inval	CueName1	Fem	1	0.865057420951416
382.972474487087	0.5	target	Exp	Inval	Face	Fem	1	0.865057420951416
383.489397380987	4.61829176975334	Jitter2	Exp	Inval	Face	Fem	1	0.865057420951416
388.126057992158	0.5	cue	Exp	Val	CueFace1	Fem	1	0.867902640386092
388.643118920611	2.5354919565707	Jitter1	Exp	Val	CueFace1	Fem	1	0.867902640386092
391.161549948729	0.5	target	Exp	Val	Face	Fem	1	0.867902640386092
391.678464873621	4.61840703572125	Jitter2	Exp	Val	Face	Fem	1	0.867902640386092
396.315180414007	0.5	cue	Exp	Inval	CueName1	Fem	1	0.973748104872357
396.832198935967	3.93643679596971	Jitter1	Exp	Inval	CueName1	Fem	1	0.973748104872357
400.751617209977	0.5	target	Exp	Inval	Face	Fem	1	0.973748104872357
401.268534980944	3.91840051821418	Jitter2	Exp	Inval	Face	Fem	1	0.973748104872357
405.204778955451	0.5	cue	Exp	Val	CueName1	Mas	1	1.04510513821515
405.721778124112	2.53542080473926	Jitter1	Exp	Val	CueName1	Mas	1	1.04510513821515
408.24019976019	0.5	target	Exp	Val	Word	Mas	1	1.04510513821515
408.757127492414	3.91833050481	Jitter2	Exp	Val	Word	Mas	1	1.04510513821515
412.693297753623	0.5	cue	Exp	Val	CueName1	Fem	1	0.846118511059103
413.210361528149	6.03790841506998	Jitter1	Exp	Val	CueName1	Fem	1	0.846118511059103
419.231206168693	0.5	target	Exp	Val	Word	Fem	1	0.846118511059103
419.748167769189	4.61838910545885	Jitter2	Exp	Val	Word	Fem	1	0.846118511059103
424.384868225385	0.5	cue	Exp	Inval	CueFace1	Fem	1	0.839856011461961
424.901906954465	3.93647436413812	Jitter1	Exp	Inval	CueFace1	Fem	1	0.839856011461961
428.821342589523	0.5	target	Exp	Inval	Word	Fem	1	0.839856011461961
429.338227061433	3.21840026206519	Jitter2	Exp	Inval	Word	Fem	1	0.839856011461961
432.573963609539	0.5	cue	Exp	Val	CueFace1	Mas	1	0.96597177890726
433.090974447101	6.02123668713648	Jitter1	Exp	Val	CueFace1	Mas	1	0.96597177890726
439.095200296675	0.5	target	Exp	Val	Face	Mas	1	0.96597177890726
439.612105544918	4.6184164277638	Jitter2	Exp	Val	Face	Mas	1	0.96597177890726
444.248797747503	0.5	cue	Exp	Inval	CueFace1	Mas	1	0.896827852129718
444.765838753443	2.53548626442353	Jitter1	Exp	Inval	CueFace1	Mas	1	0.896827852129718
447.284284011927	0.5	target	Exp	Inval	Word	Mas	1	0.896827852129718
447.801194952319	4.61848074901718	Jitter2	Exp	Inval	Word	Mas	1	0.896827852129718
452.437823972077	0.5	cue	Exp	Val	CueFace1	Fem	1	0.855215984229289
452.954920476444	3.23602272077187	Jitter1	Exp	Val	CueFace1	Fem	1	0.855215984229289
456.173846692849	0.5	target	Exp	Val	Face	Fem	1	0.855215984229289
456.690770155961	2.51828189388107	Jitter2	Exp	Val	Face	Fem	1	0.855215984229289
459.225953171281	0.5	cue	Exp	Inval	CueName1	Mas	1	0.930763291233234
459.743023207166	4.62030180899092	Jitter1	Exp	Inval	CueName1	Mas	1	0.930763291233234
464.346254980272	0.5	target	Exp	Inval	Face	Mas	1	0.930763291233234
464.86316108234	5.31841355322831	Jitter2	Exp	Inval	Face	Mas	1	0.930763291233234
