onset	duration	section	btype	validity	stim	gender	accuracy	reaction_time
10.0620024516138	0.5	cue	Att	Val	CueName2	Fem	1	0.353814304005937
10.5790343985936	3.23597102461645	Jitter1	Att	Val	CueName2	Fem	1	0.353814304005937
13.7979734762303	0.5	target	Att	Val	Word	Fem	1	0.353814304005937
14.3149570398236	6.01837942420025	Jitter2	Att	Val	Word	Fem	1	0.353814304005937
20.3359392054263	0.5	cue	Att	Inval	CueFace2	Fem	1	0.890412491109601
20.8529546451318	5.33738373401866	Jitter1	Att	Inval	CueFace2	Fem	1	0.890412491109601
26.1733229394449	0.5	target	Att	Inval	Word	Fem	1	0.890412491109601
26.6902413277785	5.31840335973902	Jitter2	Att	Inval	Word	Fem	1	0.890412491109601
32.0274826154237	0.5	cue	Att	Inval	CueName2	Fem	1	0.468281988603849
32.5445159854426	3.23598696267072	Jitter1	Att	Inval	CueName2	Fem	1	0.468281988603849
35.7634695780944	0.5	target	Att	Inval	Face	Fem	1	0.468281988603849
36.2803350293143	5.31839595993006	Jitter2	Att	Inval	Face	Fem	1	0.468281988603849
41.617536187212	0.5	cue	Att	Inval	CueName2	Fem	1	0.45065279145274
42.1346096869784	2.5354741272713	Jitter1	Att	Inval	CueName2	Fem	1	0.45065279145274
44.6530103144833	0.5	target	Att	Inval	Face	Fem	1	0.45065279145274
45.1700169313372	6.01830571069149	Jitter2	Att	Inval	Face	Fem	1	0.45065279145274
51.1910440650245	0.5	cue	Att	Val	CueName2	Fem	0	0.76522874098373
51.7080176673335	2.53541862868224	Jitter1	Att	Val	CueName2	Fem	0	0.76522874098373
54.2264626937067	0.5	target	Att	Val	Word	Fem	0	0.76522874098373
54.743347782889	3.91841423177175	Jitter2	Att	Val	Word	Fem	0	0.76522874098373
58.6796285749988	0.5	cue	Att	Inval	CueFace2	Fem	1	0.668618793872156
59.1966334842036	2.53539586003171	Jitter1	Att	Inval	CueFace2	Fem	1	0.668618793872156
61.7150244350305	0.5	target	Att	Inval	Word	Fem	1	0.668618793872156
62.231958476812	6.0184110156988	Jitter2	Att	Inval	Word	Fem	1	0.668618793872156
68.2530339938821	0.5	cue	Att	Val	CueFace2	Mas	1	0.4412795071039
68.7699842583243	6.02130249205584	Jitter1	Att	Val	CueFace2	Mas	1	0.4412795071039
74.774336485938	0.5	target	Att	Val	Face	Mas	1	0.4412795071039
75.2913576178071	3.21822243434872	Jitter2	Att	Val	Face	Mas	1	0.4412795071039
78.5269235027408	0.5	cue	Att	Inval	CueFace2	Mas	1	0.41465498521211
79.0439563035434	6.03801012806434	Jitter1	Att	Inval	CueFace2	Mas	1	0.41465498521211
85.0649336308052	0.5	target	Att	Inval	Word	Mas	1	0.41465498521211
85.581955901107	2.51824722372112	Jitter2	Att	Inval	Word	Mas	1	0.41465498521211
88.1169537366623	0.5	cue	Att	Inval	CueFace2	Mas	1	0.637067705145455
88.6340477282138	5.337508676992	Jitter1	Att	Inval	CueFace2	Mas	1	0.637067705145455
93.9544624136543	0.5	target	Att	Inval	Word	Mas	1	0.637067705145455
94.4713540488228	6.01836206309963	Jitter2	Att	Inval	Word	Mas	1	0.637067705145455
100.492429850499	0.5	cue	Att	Inval	CueName2	Fem	1	0.466627561509085
101.009438459609	4.62041741767462	Jitter1	Att	Inval	CueName2	Fem	1	0.466627561509085
105.612847268174	0.5	target	Att	Inval	Face	Fem	1	0.466627561509085
106.129670597391	2.51830756064373	Jitter2	Att	Inval	Face	Fem	1	0.466627561509085
108.664727916046	0.5	cue	Att	Inval	CueName2	Mas	1	0.555181106115924
109.181873137062	2.5355469869537	Jitter1	Att	Inval	CueName2	Mas	1	0.555181106115924
111.700274903	0.5	target	Att	Inval	Face	Mas	1	0.555181106115924
112.217207521739	4.61841306487986	Jitter2	Att	Inval	Face	Mas	1	0.555181106115924
116.853842337907	0.5	cue	Att	Val	CueName2	Fem	1	0.384609188913601
117.370933767987	4.6370174718104	Jitter1	Att	Val	CueName2	Fem	1	0.384609188913601
121.990859809717	0.5	target	Att	Val	Word	Fem	1	0.384609188913601
122.50790911779	5.31827500147483	Jitter2	Att	Val	Word	Fem	1	0.384609188913601
127.844954879649	0.5	cue	Att	Val	CueFace2	Mas	1	0.413637226516585
128.362072493677	5.32084401681277	Jitter1	Att	Val	CueFace2	Mas	1	0.413637226516585
133.665798896462	0.5	target	Att	Val	Face	Mas	1	0.413637226516585
134.182812913128	3.91824716679548	Jitter2	Att	Val	Face	Mas	1	0.413637226516585
138.118924078786	0.5	cue	Att	Val	CueFace2	Fem	0	0.579665659435705
138.635956310376	5.32078794901099	Jitter1	Att	Val	CueFace2	Fem	0	0.579665659435705
143.939712027797	0.5	target	Att	Val	Face	Fem	0	0.579665659435705
144.456574632935	3.2182662640007	Jitter2	Att	Val	Face	Fem	0	0.579665659435705
147.692336043656	0.5	cue	Att	Val	CueName2	Fem	1	0.398534780397313
148.209344368159	3.93650093650285	Jitter1	Att	Val	CueName2	Fem	1	0.398534780397313
152.128836980159	0.5	target	Att	Val	Word	Fem	1	0.398534780397313
152.645833635728	2.51823726243674	Jitter2	Att	Val	Word	Fem	1	0.398534780397313
155.180942183848	0.5	cue	Att	Val	CueFace2	Fem	1	0.425084734957636
155.697979822991	6.02132298384458	Jitter1	Att	Val	CueFace2	Fem	1	0.425084734957636
161.702265167693	0.5	target	Att	Val	Face	Fem	1	0.425084734957636
162.219167617968	3.91826282024704	Jitter2	Att	Val	Face	Fem	1	0.425084734957636
166.155353350961	0.5	cue	Att	Val	CueFace2	Mas	1	0.516952825917542
166.672380459604	3.23596874775103	Jitter1	Att	Val	CueFace2	Mas	1	0.516952825917542
169.891322098712	0.5	target	Att	Val	Face	Mas	1	0.516952825917542
170.408225687421	5.31835981469703	Jitter2	Att	Val	Face	Mas	1	0.516952825917542
175.74537049291	0.5	cue	Att	Val	CueName2	Mas	1	0.460907222583046
176.262461069164	4.63701576416133	Jitter1	Att	Val	CueName2	Mas	1	0.460907222583046
180.882386257072	0.5	target	Att	Val	Word	Mas	1	0.460907222583046
181.399352174962	3.2184515439003	Jitter2	Att	Val	Word	Mas	1	0.460907222583046
184.63497526613	0.5	cue	Att	Val	CueName2	Mas	1	0.550699666408036
185.152076372884	5.3375342917243	Jitter1	Att	Val	CueName2	Mas	1	0.550699666408036
190.472509557854	0.5	target	Att	Val	Word	Mas	1	0.550699666408036
190.989385824181	2.51839237386957	Jitter2	Att	Val	Word	Mas	1	0.550699666408036
193.524671113955	0.5	cue	Att	Val	CueName2	Mas	1	0.912581472635793
194.041722698894	6.03790795374152	Jitter1	Att	Val	CueName2	Mas	1	0.912581472635793
200.062579067697	0.5	target	Att	Val	Word	Mas	1	0.912581472635793
200.579467572177	6.0185094901135	Jitter2	Att	Val	Word	Mas	1	0.912581472635793
206.600577811438	0.5	cue	Att	Val	CueName2	Mas	1	1.12318181649971
207.117555113655	2.53541179808963	Jitter1	Att	Val	CueName2	Mas	1	1.12318181649971
209.635989609527	0.5	target	Att	Val	Word	Mas	1	1.12318181649971
210.152882383125	5.31828723962462	Jitter2	Att	Val	Word	Mas	1	1.12318181649971
215.490123101557	0.5	cue	Att	Val	CueFace2	Fem	1	0.701050744777604
216.007173548063	3.23599009335885	Jitter1	Att	Val	CueFace2	Fem	1	0.701050744777604
219.226113194916	0.5	target	Att	Val	Face	Fem	1	0.701050744777604
219.742975230838	2.5183883893551	Jitter2	Att	Val	Face	Fem	1	0.701050744777604
222.278239459611	0.5	cue	Att	Inval	CueName2	Mas	1	0.496529915300926
222.795293036805	4.62031524335544	Jitter1	Att	Inval	CueName2	Mas	1	0.496529915300926
227.398554702966	0.5	target	Att	Inval	Face	Mas	1	0.496529915300926
227.91540108544	3.91831689578976	Jitter2	Att	Inval	Face	Mas	1	0.496529915300926
231.851605317959	0.5	cue	Att	Inval	CueName2	Fem	1	0.414604040353879
232.368676256254	5.320840886121	Jitter1	Att	Inval	CueName2	Fem	1	0.414604040353879
237.67244620408	0.5	target	Att	Inval	Face	Fem	1	0.414604040353879
238.189470182031	3.21828077901955	Jitter2	Att	Inval	Face	Fem	1	0.414604040353879
241.424987398976	0.5	cue	Att	Inval	CueFace2	Mas	1	0.529515429032472
241.942091067205	3.93654334311577	Jitter1	Att	Inval	CueFace2	Mas	1	0.529515429032472
245.861530742091	0.5	target	Att	Inval	Word	Mas	1	0.529515429032472
246.378412131366	3.2183843763778	Jitter2	Att	Inval	Word	Mas	1	0.529515429032472
249.614172688263	0.5	cue	Att	Val	CueFace2	Fem	1	0.469027092702163
250.131197235431	3.91979273127799	Jitter1	Att	Val	CueFace2	Fem	1	0.469027092702163
254.033965419541	0.5	target	Att	Val	Face	Fem	1	0.469027092702163
254.550839693613	4.61840025751371	Jitter2	Att	Val	Face	Fem	1	0.469027092702163
259.187525739249	0.5	cue	Att	Inval	CueFace2	Fem	0	0.731481331269606
259.704641645629	3.23593971772061	Jitter1	Att	Inval	CueFace2	Fem	0	0.731481331269606
262.92346545697	0.5	target	Att	Inval	Word	Fem	0	0.731481331269606
263.440438205456	2.51831382201999	Jitter2	Att	Inval	Word	Fem	0	0.731481331269606
265.975703857264	0.5	cue	Att	Val	CueName2	Mas	1	0.695340082533221
266.492735519638	3.23597700138635	Jitter1	Att	Val	CueName2	Mas	1	0.695340082533221
269.711680858651	0.5	target	Att	Val	Word	Mas	1	0.695340082533221
270.228631407703	3.91831262666892	Jitter2	Att	Val	Word	Mas	1	0.695340082533221
274.16481059471	0.5	cue	Att	Val	CueFace2	Fem	1	0.49779841376585
274.681842826296	4.62028507489231	Jitter1	Att	Val	CueFace2	Fem	1	0.49779841376585
279.285095669602	0.5	target	Att	Val	Face	Fem	1	0.49779841376585
279.801970797496	5.31840734425714	Jitter2	Att	Val	Face	Fem	1	0.49779841376585
285.13920952367	0.5	cue	Att	Val	CueName2	Fem	1	0.449720699805766
285.65624004761	6.03797085214319	Jitter1	Att	Val	CueName2	Fem	1	0.449720699805766
291.677180375813	0.5	target	Att	Val	Word	Fem	1	0.449720699805766
292.194178169815	3.21829614785747	Jitter2	Att	Val	Word	Fem	1	0.449720699805766
295.429797845689	0.5	cue	Att	Inval	CueFace2	Mas	1	0.561135677537095
295.946822108246	3.23597102461281	Jitter1	Att	Inval	CueFace2	Mas	1	0.561135677537095
299.165768870302	0.5	target	Att	Inval	Word	Mas	1	0.561135677537095
299.682650544186	5.31838941394381	Jitter2	Att	Inval	Word	Mas	1	0.561135677537095
305.019850279044	0.5	cue	Att	Inval	CueFace2	Fem	0	0.454493009030557
305.536902148593	3.93648898295942	Jitter1	Att	Inval	CueFace2	Fem	0	0.454493009030557
309.456339262004	0.5	target	Att	Inval	Word	Fem	0	0.454493009030557
309.973232320215	3.21839092236405	Jitter2	Att	Inval	Word	Fem	0	0.454493009030557
313.208945062946	0.5	cue	Att	Inval	CueName2	Fem	1	0.604517641859275
313.726031085469	6.02133892189886	Jitter1	Att	Inval	CueName2	Fem	1	0.604517641859275
319.730283984845	0.5	target	Att	Inval	Face	Fem	1	0.604517641859275
320.24714089782	3.91829668861101	Jitter2	Att	Inval	Face	Fem	1	0.604517641859275
324.183335453665	0.5	cue	Att	Val	CueFace2	Mas	1	0.779956642796606
324.700434568163	2.53552364908683	Jitter1	Att	Val	CueFace2	Mas	1	0.779956642796606
327.218859102752	0.5	target	Att	Val	Face	Mas	1	0.779956642796606
327.735756999296	4.61840708810996	Jitter2	Att	Val	Face	Mas	1	0.779956642796606
332.372498543518	0.5	cue	Att	Inval	CueFace2	Fem	1	0.417237804042088
332.8894920684	4.63699014942904	Jitter1	Att	Inval	CueFace2	Fem	1	0.417237804042088
337.509488692947	0.5	target	Att	Inval	Word	Fem	1	0.417237804042088
338.026388581748	3.9183689790807	Jitter2	Att	Inval	Word	Fem	1	0.417237804042088
341.962597083391	0.5	cue	Att	Inval	CueName2	Mas	1	0.463299069357163
342.479620492126	5.32078965666005	Jitter1	Att	Inval	CueName2	Mas	1	0.463299069357163
347.783386740051	0.5	target	Att	Inval	Face	Mas	1	0.463299069357163
348.300344973522	6.01824878906336	Jitter2	Att	Inval	Face	Mas	1	0.463299069357163
354.321358161407	0.5	cue	Att	Val	CueName2	Mas	1	1.12090495141456
354.838333471369	3.93641100033346	Jitter1	Att	Val	CueName2	Mas	1	1.12090495141456
358.757769161741	0.5	target	Att	Val	Word	Mas	1	1.12090495141456
359.274649127976	4.61829438328641	Jitter2	Att	Val	Word	Mas	1	1.12090495141456
363.911395510535	0.5	cue	Att	Inval	CueName2	Fem	0	0.467418487518444
364.428452503031	3.91981720757758	Jitter1	Att	Inval	CueName2	Fem	0	0.467418487518444
368.331212718113	0.5	target	Att	Inval	Face	Fem	0	0.467418487518444
368.84811829908	4.61838545788851	Jitter2	Att	Inval	Face	Fem	0	0.467418487518444
373.484768768696	0.5	cue	Att	Val	CueFace2	Mas	1	0.446033886015357
374.001837714732	3.91983343024185	Jitter1	Att	Val	CueFace2	Mas	1	0.446033886015357
377.904602198938	0.5	target	Att	Val	Face	Mas	1	0.446033886015357
378.42164780711	6.01822715884191	Jitter2	Att	Val	Face	Mas	1	0.446033886015357
384.442537759674	0.5	cue	Att	Inval	CueName2	Mas	1	0.554721463980968
384.959570560477	6.02131558402834	Jitter1	Att	Inval	CueName2	Mas	1	0.554721463980968
390.963853343703	0.5	target	Att	Inval	Face	Mas	1	0.554721463980968
391.480680657434	3.21846036675197	Jitter2	Att	Inval	Face	Mas	1	0.554721463980968
394.716423853235	0.5	cue	Att	Inval	CueName2	Mas	1	0.454353266435646
395.233433031564	3.91981009237497	Jitter1	Att	Inval	CueName2	Mas	1	0.454353266435646
399.13623394561	0.5	target	Att	Inval	Face	Mas	1	0.454353266435646
399.653253085224	5.31826048645598	Jitter2	Att	Inval	Face	Mas	1	0.454353266435646
404.990346661249	0.5	cue	Att	Inval	CueFace2	Mas	1	0.59668835665434
405.507404792173	2.53547042736318	Jitter1	Att	Inval	CueFace2	Mas	1	0.59668835665434
408.025817088612	0.5	target	Att	Inval	Word	Mas	1	0.59668835665434
408.542707016131	3.91839487841935	Jitter2	Att	Inval	Word	Mas	1	0.59668835665434
412.478964470374	0.5	cue	Att	Val	CueFace2	Fem	1	0.460053682785656
412.996013493841	2.53550287269172	Jitter1	Att	Val	CueFace2	Fem	1	0.460053682785656
415.514467343066	0.5	target	Att	Val	Face	Fem	1	0.460053682785656
416.031495305531	6.01823484326451	Jitter2	Att	Val	Face	Fem	1	0.460053682785656
422.052393227124	0.5	cue	Att	Val	CueFace2	Mas	1	0.441790094100725
422.569400697801	4.62027539821429	Jitter1	Att	Val	CueFace2	Mas	1	0.441790094100725
427.172668625339	0.5	target	Att	Val	Face	Mas	1	0.441790094100725
427.689682357399	2.51823669321675	Jitter2	Att	Val	Face	Mas	1	0.441790094100725
430.224798020721	0.5	cue	Att	Inval	CueFace2	Mas	1	0.548638249685609
430.741833098389	4.63702487161936	Jitter1	Att	Inval	CueFace2	Mas	1	0.548638249685609
435.361822892341	0.5	target	Att	Inval	Word	Mas	1	0.548638249685609
435.878642237043	4.61842814911142	Jitter2	Att	Inval	Word	Mas	1	0.548638249685609
440.515386911953	0.5	cue	Att	Inval	CueName2	Mas	1	0.467059027443611
441.032415728241	3.23595537116853	Jitter1	Att	Inval	CueName2	Mas	1	0.467059027443611
444.251342283122	0.5	target	Att	Inval	Face	Mas	1	0.467059027443611
444.768319585339	2.51830414534561	Jitter2	Att	Inval	Face	Mas	1	0.467059027443611
447.303533723076	0.5	cue	Att	Inval	CueFace2	Fem	1	0.492959506238549
447.820531517078	6.03791791502954	Jitter1	Att	Inval	CueFace2	Fem	1	0.492959506238549
453.841451638105	0.5	target	Att	Inval	Word	Fem	1	0.492959506238549
454.358368603396	4.61840338820184	Jitter2	Att	Inval	Word	Fem	1	0.492959506238549
458.995147431284	0.5	cue	Att	Val	CueName2	Fem	1	0.485861663939431
459.5121036725	5.33734645035292	Jitter1	Att	Val	CueName2	Fem	1	0.485861663939431
464.832493881637	0.5	target	Att	Val	Word	Fem	1	0.485861663939431
465.349388647493	4.61841648017798	Jitter2	Att	Val	Word	Fem	1	0.485861663939431
