onset	duration	section	btype	validity	stim	gender	accuracy	reaction_time
10.0465781659022	0.5	cue	Att	Val	CueName1	Fem	1	0.699640145467129
10.5636046586405	5.33737927768379	Jitter1	Att	Val	CueName1	Fem	1	0.699640145467129
15.883957443586	0.5	target	Att	Val	Word	Fem	1	0.699640145467129
16.4008552948762	4.61839709338528	Jitter2	Att	Val	Word	Fem	1	0.699640145467129
21.0375561881374	0.5	cue	Att	Inval	CueFace2	Fem	1	0.919972211169807
21.5545966265199	6.0378681151924	Jitter1	Att	Inval	CueFace2	Fem	1	0.919972211169807
27.5754243033298	0.5	target	Att	Inval	Word	Fem	1	0.919972211169807
28.0923093473939	3.91832377914398	Jitter2	Att	Inval	Word	Fem	1	0.919972211169807
32.0284738741157	0.5	cue	Att	Inval	CueName1	Fem	1	1.17053217146349
32.5455154509182	4.62026381742908	Jitter1	Att	Inval	CueName1	Fem	1	1.17053217146349
37.1487376915447	0.5	target	Att	Inval	Face	Fem	1	1.17053217146349
37.6656264354751	3.9183499628034	Jitter2	Att	Inval	Face	Fem	1	1.17053217146349
41.6018197073008	0.5	cue	Att	Val	CueFace2	Mas	1	1.18456177379448
42.1188484768791	5.3207202099693	Jitter1	Att	Val	CueFace2	Mas	1	1.18456177379448
47.4225399172701	0.5	target	Att	Val	Face	Mas	1	1.18456177379448
47.9394292304096	3.91834939359251	Jitter2	Att	Val	Face	Mas	1	1.18456177379448
51.8756253482843	0.5	cue	Att	Val	CueName1	Mas	1	1.7839071254275
52.3926751786312	2.53545608801323	Jitter1	Att	Val	CueName1	Mas	1	1.7839071254275
54.9110814362975	0.5	target	Att	Val	Word	Mas	1	1.7839071254275
55.4279647727344	5.31835998089628	Jitter2	Att	Val	Word	Mas	1	1.7839071254275
60.7651453961444	0.5	cue	Att	Inval	CueName1	Mas	1	1.25779404959394
61.2821556663985	3.23591646502246	Jitter1	Att	Inval	CueName1	Mas	1	1.25779404959394
64.5010618611668	0.5	target	Att	Inval	Face	Mas	1	1.25779404959394
65.017961989297	3.91826600433342	Jitter2	Att	Inval	Face	Mas	1	1.25779404959394
68.9541546919118	0.5	cue	Att	Val	CueFace2	Fem	1	1.95672752090286
69.471152439548	3.23592500317318	Jitter1	Att	Val	CueFace2	Fem	1	1.95672752090286
72.6900796950849	0.5	target	Att	Val	Face	Fem	1	1.95672752090286
73.2069715696689	3.21827807158661	Jitter2	Att	Val	Face	Fem	1	1.95672752090286
76.4426922264702	0.5	cue	Att	Val	CueFace2	Mas	1	0.947757625848681
76.9597181499994	4.62022311891633	Jitter1	Att	Val	CueFace2	Mas	1	0.947757625848681
81.5629153453865	0.5	target	Att	Val	Face	Mas	1	0.947757625848681
82.0798035201078	2.51836100547553	Jitter2	Att	Val	Face	Mas	1	0.947757625848681
84.6150478620184	0.5	cue	Att	Inval	CueFace2	Mas	1	1.43854126288352
85.1320530093835	4.63688645570619	Jitter1	Att	Inval	CueFace2	Mas	1	1.43854126288352
89.7519343177246	0.5	target	Att	Inval	Word	Mas	1	1.43854126288352
90.2688344458529	4.61834984896086	Jitter2	Att	Inval	Word	Mas	1	1.43854126288352
94.9055165551854	0.5	cue	Att	Inval	CueFace2	Mas	1	1.79933926108606
95.4225911461654	5.33747832021618	Jitter1	Att	Inval	CueFace2	Mas	1	1.79933926108606
100.742994875402	0.5	target	Att	Inval	Word	Mas	1	1.79933926108606
101.259791691924	2.51840938832174	Jitter2	Att	Inval	Word	Mas	1	1.79933926108606
103.794970859295	0.5	cue	Att	Inval	CueName1	Mas	1	1.54384425049648
104.312079602872	2.53549337126606	Jitter1	Att	Inval	CueName1	Mas	1	1.54384425049648
106.830464230561	0.5	target	Att	Inval	Face	Mas	1	1.54384425049648
107.34736378948	3.21824733424728	Jitter2	Att	Inval	Face	Mas	1	1.54384425049648
110.583072208266	0.5	cue	Att	Inval	CueName1	Mas	1	0.787357676166721
111.100100124029	3.91974538100294	Jitter1	Att	Inval	CueName1	Mas	1	0.787357676166721
115.002817589269	0.5	target	Att	Inval	Face	Mas	1	0.787357676166721
115.51970861004	2.51831603788924	Jitter2	Att	Inval	Face	Mas	1	0.787357676166721
118.054928475922	0.5	cue	Att	Val	CueFace2	Mas	1	1.06667668476257
118.571967775886	3.936432909215	Jitter1	Att	Val	CueFace2	Mas	1	1.06667668476257
122.491361385137	0.5	target	Att	Val	Face	Mas	1	1.06667668476257
123.008242444734	3.21834922282869	Jitter2	Att	Val	Face	Mas	1	1.06667668476257
126.243951717333	0.5	cue	Att	Val	CueFace2	Fem	1	1.52521400871228
126.760993578742	5.3207187869466	Jitter1	Att	Val	CueFace2	Fem	1	1.52521400871228
132.06467050428	0.5	target	Att	Val	Face	Fem	1	1.52521400871228
132.581547579406	4.6183834323474	Jitter2	Att	Val	Face	Fem	1	1.52521400871228
137.218240788332	0.5	cue	Att	Inval	CueFace2	Mas	1	1.72805652937859
137.735379984642	2.53546974905294	Jitter1	Att	Inval	CueFace2	Mas	1	1.72805652937859
140.253710537385	0.5	target	Att	Inval	Word	Mas	1	1.72805652937859
140.770569682398	3.91833004045293	Jitter2	Att	Inval	Word	Mas	1	1.72805652937859
144.706797391424	0.5	cue	Att	Val	CueName1	Mas	0	1.70500751072541
145.223830430077	6.03785502336359	Jitter1	Att	Val	CueName1	Mas	0	1.70500751072541
151.244652414787	0.5	target	Att	Val	Word	Mas	0	1.70500751072541
151.761549981471	2.5183444983868	Jitter2	Att	Val	Word	Mas	0	1.70500751072541
154.296769562749	0.5	cue	Att	Val	CueFace2	Fem	1	1.03553264675065
154.813804309033	6.0212030707753	Jitter1	Att	Val	CueFace2	Fem	1	1.03553264675065
160.817972633524	0.5	target	Att	Val	Face	Fem	1	1.03553264675065
161.334862800479	2.51844667157275	Jitter2	Att	Val	Face	Fem	1	1.03553264675065
163.87009575819	0.5	cue	Att	Val	CueFace2	Fem	1	2.23582567603626
164.387088952146	2.53548796377072	Jitter1	Att	Val	CueFace2	Fem	1	2.23582567603626
166.90558372196	0.5	target	Att	Val	Face	Fem	1	2.23582567603626
167.4224272137	5.3183437584139	Jitter2	Att	Val	Face	Fem	1	2.23582567603626
172.759609829345	0.5	cue	Att	Inval	CueFace2	Mas	1	1.0172072168989
173.276622661044	3.93641725593989	Jitter1	Att	Inval	CueFace2	Mas	1	1.0172072168989
177.196027085285	0.5	target	Att	Inval	Word	Mas	1	1.0172072168989
177.712896760682	3.21839162897049	Jitter2	Att	Inval	Word	Mas	1	1.0172072168989
180.948617132877	0.5	cue	Att	Val	CueName1	Fem	1	2.25558551497306
181.465655009815	4.63690523963487	Jitter1	Att	Val	CueName1	Fem	1	2.25558551497306
186.085522372512	0.5	target	Att	Val	Word	Fem	1	2.25558551497306
186.602415385516	3.21837939095713	Jitter2	Att	Val	Word	Fem	1	2.25558551497306
189.838124942722	0.5	cue	Att	Val	CueName1	Mas	1	0.855037878076473
190.355247631944	3.23587434348701	Jitter1	Att	Val	CueName1	Mas	1	0.855037878076473
193.573999286209	0.5	target	Att	Val	Word	Mas	1	0.855037878076473
194.090955481519	6.01837836637969	Jitter2	Att	Val	Word	Mas	1	0.855037878076473
200.128568021442	0.5	cue	Att	Val	CueName1	Mas	1	1.65933097338711
200.645635497298	4.63696272984089	Jitter1	Att	Val	CueName1	Mas	1	1.65933097338711
205.265530751283	0.5	target	Att	Val	Word	Mas	1	1.65933097338711
205.782405264963	3.91829474943734	Jitter2	Att	Val	Word	Mas	1	1.65933097338711
209.718605082702	0.5	cue	Att	Inval	CueName1	Fem	1	1.07016594177912
210.235636698331	3.23595118683079	Jitter1	Att	Inval	CueName1	Fem	1	1.07016594177912
213.454556269533	0.5	target	Att	Inval	Face	Fem	1	1.07016594177912
213.97142594493	6.0183621438955	Jitter2	Att	Inval	Face	Fem	1	1.07016594177912
219.992410439081	0.5	cue	Att	Inval	CueFace2	Fem	1	0.820225566521913
220.509424124597	3.23593183369303	Jitter1	Att	Inval	CueFace2	Fem	1	0.820225566521913
223.728342272774	0.5	target	Att	Inval	Word	Fem	1	0.820225566521913
224.245221055531	3.21836316847293	Jitter2	Att	Inval	Word	Fem	1	0.820225566521913
227.480887921991	0.5	cue	Att	Val	CueName1	Fem	1	0.920155496776715
227.998005772926	2.5355172780819	Jitter1	Att	Val	CueName1	Fem	1	0.920155496776715
230.516405200073	0.5	target	Att	Val	Word	Fem	1	0.920155496776715
231.033270037186	3.91839265354793	Jitter2	Att	Val	Word	Fem	1	0.920155496776715
234.969566905222	0.5	cue	Att	Inval	CueName1	Mas	1	1.36966486625533
235.486459064412	6.02111398941634	Jitter1	Att	Inval	CueName1	Mas	1	1.36966486625533
241.490680894638	0.5	target	Att	Inval	Face	Mas	1	1.36966486625533
242.00755768516	6.0183615746846	Jitter2	Att	Inval	Face	Mas	1	1.36966486625533
248.028553848115	0.5	cue	Att	Val	CueFace2	Mas	1	1.49570758773916
248.545582048484	3.23592044949328	Jitter1	Att	Val	CueFace2	Mas	1	1.49570758773916
251.764474297608	0.5	target	Att	Val	Face	Mas	1	1.49570758773916
252.281371579687	5.31837136509603	Jitter2	Att	Val	Face	Mas	1	1.49570758773916
257.618564156506	0.5	cue	Att	Inval	CueFace2	Mas	1	0.783562753404112
258.135584672542	6.03785189271002	Jitter1	Att	Inval	CueFace2	Mas	1	0.783562753404112
264.156416049216	0.5	target	Att	Inval	Word	Mas	1	0.783562753404112
264.673313900505	6.01838718913314	Jitter2	Att	Inval	Word	Mas	1	0.783562753404112
270.694307217411	0.5	cue	Att	Val	CueName1	Fem	1	0.781637969947042
271.211333994754	3.23595460209071	Jitter1	Att	Val	CueName1	Fem	1	0.781637969947042
274.430261819502	0.5	target	Att	Val	Word	Fem	1	0.781637969947042
274.94711954149	5.31838957981381	Jitter2	Att	Val	Word	Fem	1	0.781637969947042
280.284273696636	0.5	cue	Att	Val	CueName1	Mas	1	1.39402335240811
280.801301897005	5.33745242116311	Jitter1	Att	Val	CueName1	Mas	1	1.39402335240811
286.121726117799	0.5	target	Att	Val	Word	Mas	1	1.39402335240811
286.638584693603	4.61837489419668	Jitter2	Att	Val	Word	Mas	1	1.39402335240811
291.275251718871	0.5	cue	Att	Val	CueName1	Mas	1	0.843893031787957
291.792228121134	3.93643034777051	Jitter1	Att	Val	CueName1	Mas	1	0.843893031787957
295.711682066642	0.5	target	Att	Val	Word	Mas	1	0.843893031787957
296.228571095176	3.21835320729951	Jitter2	Att	Val	Word	Mas	1	0.843893031787957
299.464295167236	0.5	cue	Att	Inval	CueName1	Fem	1	1.30599730991344
299.981296614736	6.02117887935128	Jitter1	Att	Inval	CueName1	Fem	1	1.30599730991344
305.985474046587	0.5	target	Att	Inval	Face	Fem	1	1.30599730991344
306.502363644331	2.51836043626645	Jitter2	Att	Inval	Face	Fem	1	1.30599730991344
309.037595463624	0.5	cue	Att	Inval	CueName1	Fem	1	1.5623435739908
309.554569589047	2.53538920584288	Jitter1	Att	Inval	CueName1	Fem	1	1.5623435739908
312.072984669467	0.5	target	Att	Inval	Face	Fem	1	1.5623435739908
312.589935457283	4.61835554105892	Jitter2	Att	Inval	Face	Fem	1	1.5623435739908
317.226615858985	0.5	cue	Att	Inval	CueName1	Fem	1	1.06786177988579
317.74358543073	5.32072134839109	Jitter1	Att	Inval	CueName1	Fem	1	1.06786177988579
323.047337207376	0.5	target	Att	Inval	Face	Fem	1	1.06786177988579
323.564228228146	5.31842202478219	Jitter2	Att	Inval	Face	Fem	1	1.06786177988579
328.901407997741	0.5	cue	Att	Inval	CueFace2	Fem	1	1.04127227532081
329.418427375354	3.936403594902	Jitter1	Att	Inval	CueFace2	Fem	1	1.04127227532081
333.337811592643	0.5	target	Att	Inval	Word	Fem	1	1.04127227532081
333.854722535762	4.61834785672545	Jitter2	Att	Inval	Word	Fem	1	1.04127227532081
338.491502833811	0.5	cue	Att	Val	CueName1	Fem	1	0.861576962024628
339.008426584152	6.03778927961321	Jitter1	Att	Val	CueName1	Fem	1	0.861576962024628
345.029292113424	0.5	target	Att	Val	Word	Fem	1	0.861576962024628
345.546165488686	2.51829696935602	Jitter2	Att	Val	Word	Fem	1	0.861576962024628
348.081389054434	0.5	cue	Att	Inval	CueFace2	Mas	1	1.57743446828135
348.59843490031	3.23593980263104	Jitter1	Att	Inval	CueFace2	Mas	1	1.57743446828135
351.817328857065	0.5	target	Att	Inval	Word	Mas	1	1.57743446828135
352.334216177971	5.31834148157395	Jitter2	Att	Inval	Word	Mas	1	1.57743446828135
357.671306581604	0.5	cue	Att	Inval	CueFace2	Fem	1	1.03185384282187
358.188382880213	2.53554830002577	Jitter1	Att	Inval	CueFace2	Fem	1	1.03185384282187
360.70685488163	0.5	target	Att	Inval	Word	Fem	1	1.03185384282187
361.223744479374	5.31846727697484	Jitter2	Att	Inval	Word	Fem	1	1.03185384282187
366.560894934657	0.5	cue	Att	Val	CueFace2	Fem	1	1.39783307462858
367.077923135026	3.9197359890386	Jitter1	Att	Val	CueFace2	Fem	1	1.39783307462858
370.980630923696	0.5	target	Att	Val	Face	Fem	1	1.39783307462858
371.497541012999	6.01834933667124	Jitter2	Att	Val	Face	Fem	1	1.39783307462858
377.518613165485	0.5	cue	Att	Inval	CueName1	Fem	1	1.55942096548279
378.035595829057	3.93630825223408	Jitter1	Att	Inval	CueName1	Fem	1	1.55942096548279
381.954921417719	0.5	target	Att	Inval	Face	Fem	1	1.55942096548279
382.471818415193	3.21827408711579	Jitter2	Att	Inval	Face	Fem	1	1.55942096548279
385.707526549375	0.5	cue	Att	Inval	CueName1	Mas	0	1.01793694405933
386.224554180533	5.32071992536476	Jitter1	Att	Inval	CueName1	Mas	0	1.01793694405933
391.52824647474	0.5	target	Att	Inval	Face	Mas	0	1.01793694405933
392.045135503275	5.31835571182273	Jitter2	Att	Inval	Face	Mas	0	1.01793694405933
397.38230218104	0.5	cue	Att	Val	CueFace2	Mas	1	1.79231862551751
397.899340342585	2.53544356539533	Jitter1	Att	Val	CueFace2	Mas	1	1.79231862551751
400.417745746436	0.5	target	Att	Val	Face	Mas	1	1.79231862551751
400.93463534418	6.01836925901989	Jitter2	Att	Val	Face	Mas	1	1.79231862551751
406.955686720501	0.5	cue	Att	Inval	CueFace2	Fem	1	1.49347315406703
407.472612747684	4.63678570554475	Jitter1	Att	Inval	CueFace2	Fem	1	1.49347315406703
412.092472426046	0.5	target	Att	Inval	Word	Fem	1	1.49347315406703
412.609421790836	6.01836185929096	Jitter2	Att	Inval	Word	Fem	1	1.49347315406703
418.630406000382	0.5	cue	Att	Val	CueFace2	Fem	1	1.33910426844886
419.147426231812	4.62022710338715	Jitter1	Att	Val	CueFace2	Fem	1	1.33910426844886
423.750633103769	0.5	target	Att	Val	Face	Fem	1	1.33910426844886
424.267520424675	3.9183656160767	Jitter2	Att	Val	Face	Fem	1	1.33910426844886
428.20369718941	0.5	cue	Att	Val	CueFace2	Mas	1	0.740640623034778
428.720778895515	6.02126198400401	Jitter1	Att	Val	CueFace2	Mas	1	0.740640623034778
434.724959173414	0.5	target	Att	Val	Face	Mas	1	0.740640623034778
435.241858732334	4.61825649852835	Jitter2	Att	Val	Face	Mas	1	0.740640623034778
439.878512096564	0.5	cue	Att	Inval	CueFace2	Fem	1	1.10152087207462
440.395520943795	5.3373727317703	Jitter1	Att	Inval	CueFace2	Fem	1	1.10152087207462
445.715884828334	0.5	target	Att	Inval	Word	Fem	1	1.10152087207462
446.232780402783	2.51840682687725	Jitter2	Att	Inval	Word	Fem	1	1.10152087207462
448.768008237606	0.5	cue	Att	Inval	CueName1	Mas	1	1.25700654762295
449.285034730345	4.62024076442503	Jitter1	Att	Inval	CueName1	Mas	1	1.25700654762295
453.888249002031	0.5	target	Att	Inval	Face	Mas	1	1.25700654762295
454.405114123749	4.61838144011199	Jitter2	Att	Inval	Face	Mas	1	1.25700654762295
459.041752403915	0.5	cue	Att	Val	CueName1	Fem	1	1.55497458192986
459.558797965188	3.93646962325693	Jitter1	Att	Val	CueName1	Fem	1	1.55497458192986
463.478222027172	0.5	target	Att	Val	Word	Fem	1	1.55497458192986
463.995120447671	6	Jitter2	Att	Val	Word	Fem	1	1.55497458192986
