onset	duration	section	btype	validity	stim	gender	accuracy	reaction_time
10.0501893766905	0.5	cue	Exp	Val	CueName1	Fem	1	0.960077207857466
10.5672136410412	5.33739133751078	Jitter1	Exp	Val	CueName1	Fem	1	0.960077207857466
15.8875807142012	0.5	target	Exp	Val	Word	Fem	1	0.960077207857466
16.4044763367365	3.91832525432255	Jitter2	Exp	Val	Word	Fem	1	0.960077207857466
20.3407024412336	0.5	cue	Exp	Val	CueFace2	Fem	0	0.734131519750008
20.8577079216029	5.32070490022852	Jitter1	Exp	Val	CueFace2	Fem	0	0.734131519750008
26.1614073414621	0.5	target	Exp	Val	Face	Fem	0	0.734131519750008
26.6782967026702	6.01835508101067	Jitter2	Exp	Val	Face	Fem	0	0.734131519750008
32.6992932099893	0.5	cue	Exp	Inval	CueFace2	Mas	1	0.702712748518024
33.2163240202717	5.33738706842269	Jitter1	Exp	Inval	CueFace2	Mas	1	0.702712748518024
38.536680278412	0.5	target	Exp	Inval	Word	Mas	1	0.702712748518024
39.0535813084571	5.31827436680942	Jitter2	Exp	Inval	Word	Mas	1	0.702712748518024
44.3907526456951	0.5	cue	Exp	Val	CueFace2	Mas	1	0.684803644775457
44.9077874404593	3.91975369076681	Jitter1	Exp	Val	CueFace2	Mas	1	0.684803644775457
48.8105063364619	0.5	target	Exp	Val	Face	Mas	1	0.684803644775457
49.3274036666335	4.618489073413	Jitter2	Exp	Val	Face	Mas	1	0.684803644775457
53.9641149101553	0.5	cue	Exp	Val	CueFace2	Mas	1	0.65117405579258
54.4810702999057	3.23590831367619	Jitter1	Exp	Val	CueFace2	Mas	1	0.65117405579258
57.7000232238315	0.5	target	Exp	Val	Face	Mas	1	0.65117405579258
58.2169407610127	6.01836703445406	Jitter2	Exp	Val	Face	Mas	1	0.65117405579258
64.2379213304066	0.5	cue	Exp	Val	CueFace2	Fem	1	0.896884761978072
64.7549401872475	4.62023427609893	Jitter1	Exp	Val	CueFace2	Fem	1	0.896884761978072
69.3581556065055	0.5	target	Exp	Val	Face	Fem	1	0.896884761978072
69.87504382929	3.21835895164986	Jitter2	Exp	Val	Face	Fem	1	0.896884761978072
73.1107073819912	0.5	cue	Exp	Val	CueFace2	Mas	1	0.604773635941456
73.6277897059226	2.53550286427162	Jitter1	Exp	Val	CueFace2	Mas	1	0.604773635941456
76.1462102462629	0.5	target	Exp	Val	Face	Mas	1	0.604773635941456
76.6631058687981	2.5183809801365	Jitter2	Exp	Val	Face	Mas	1	0.604773635941456
79.1983292501882	0.5	cue	Exp	Inval	CueFace2	Fem	1	0.732136717790127
79.7153270462004	3.93642675157753	Jitter1	Exp	Inval	CueFace2	Fem	1	0.732136717790127
83.6347560017657	0.5	target	Exp	Inval	Word	Fem	1	0.732136717790127
84.1516527627246	4.61836185462744	Jitter2	Exp	Inval	Word	Fem	1	0.732136717790127
88.7883378225142	0.5	cue	Exp	Val	CueName1	Mas	1	0.730526987459598
89.3053697712221	3.23591400579244	Jitter1	Exp	Val	CueName1	Mas	1	0.730526987459598
92.5242518283067	0.5	target	Exp	Val	Word	Mas	1	0.730526987459598
93.0412015259426	3.21842526479668	Jitter2	Exp	Val	Word	Mas	1	0.730526987459598
96.2768924007978	0.5	cue	Exp	Val	CueFace2	Fem	1	0.849532335771073
96.7939186573894	4.62023086082991	Jitter1	Exp	Val	CueFace2	Fem	1	0.849532335771073
101.397123261628	0.5	target	Exp	Val	Face	Fem	1	0.849532335771073
101.914019453374	2.51835422719341	Jitter2	Exp	Val	Face	Fem	1	0.849532335771073
104.449245111611	0.5	cue	Exp	Val	CueName1	Fem	1	0.728941733226748
104.966269091356	3.93644895082798	Jitter1	Exp	Val	CueName1	Fem	1	0.728941733226748
108.885694062439	0.5	target	Exp	Val	Word	Fem	1	0.728941733226748
109.4025663473	5.31828318958833	Jitter2	Exp	Val	Word	Fem	1	0.728941733226748
114.739738538356	0.5	cue	Exp	Inval	CueName1	Fem	1	0.767242556989004
115.256769064034	2.53547952659756	Jitter1	Exp	Inval	CueName1	Fem	1	0.767242556989004
117.775218064953	0.5	target	Exp	Inval	Face	Fem	1	0.767242556989004
118.29209404969	4.61846658955801	Jitter2	Exp	Inval	Face	Fem	1	0.767242556989004
122.928803016366	0.5	cue	Exp	Val	CueFace2	Fem	1	2.02164227784851
123.445806219888	3.2359105905216	Jitter1	Exp	Val	CueFace2	Fem	1	2.02164227784851
126.664713606888	0.5	target	Exp	Val	Face	Fem	1	2.02164227784851
127.181612360087	2.51835451179795	Jitter2	Exp	Val	Face	Fem	1	2.02164227784851
129.716828626333	0.5	cue	Exp	Val	CueName1	Fem	1	0.686078678700142
130.233868544003	2.53542630531592	Jitter1	Exp	Val	CueName1	Fem	1	0.686078678700142
132.752254931649	0.5	target	Exp	Val	Word	Fem	1	0.686078678700142
133.269194668081	2.51834369677817	Jitter2	Exp	Val	Word	Fem	1	0.686078678700142
135.80441064972	0.5	cue	Exp	Val	CueName1	Mas	1	0.718363789947034
136.321950904363	2.53546074261612	Jitter1	Exp	Val	CueName1	Mas	1	0.718363789947034
138.839871392336	0.5	target	Exp	Val	Word	Mas	1	0.718363789947034
139.356758761303	6.01836475760683	Jitter2	Exp	Val	Word	Mas	1	0.718363789947034
145.37774530742	0.5	cue	Exp	Inval	CueName1	Mas	1	0.663691587507856
145.894767294923	5.32072112275819	Jitter1	Exp	Inval	CueName1	Mas	1	0.663691587507856
151.198466430178	0.5	target	Exp	Inval	Face	Mas	1	0.663691587507856
151.715378559849	3.21833646779123	Jitter2	Exp	Inval	Face	Mas	1	0.663691587507856
154.951024466989	0.5	cue	Exp	Val	CueFace2	Fem	1	0.621695442208875
155.468063530841	6.02126972887345	Jitter1	Exp	Val	CueFace2	Fem	1	0.621695442208875
161.472294195863	0.5	target	Exp	Val	Face	Fem	1	0.621695442208875
161.989184126283	3.91836196846998	Jitter2	Exp	Val	Face	Fem	1	0.621695442208875
165.925384900866	0.5	cue	Exp	Val	CueName1	Mas	1	0.615569018042152
166.44240888061	4.63686265380056	Jitter1	Exp	Val	CueName1	Mas	1	0.615569018042152
171.062247554666	0.5	target	Exp	Val	Word	Mas	1	0.615569018042152
171.579194975455	3.21835667480264	Jitter2	Exp	Val	Word	Mas	1	0.615569018042152
174.814911180225	0.5	cue	Exp	Inval	CueName1	Fem	1	0.590619620950747
175.331934590758	4.62023541452254	Jitter1	Exp	Inval	CueName1	Fem	1	0.590619620950747
179.935146594747	0.5	target	Exp	Inval	Face	Fem	1	0.590619620950747
180.452040225044	3.91836111465273	Jitter2	Exp	Inval	Face	Fem	1	0.590619620950747
184.388239861202	0.5	cue	Exp	Val	CueFace2	Fem	1	0.625506313695951
184.905305393393	3.23593478201474	Jitter1	Exp	Val	CueFace2	Fem	1	0.625506313695951
188.124174643217	0.5	target	Exp	Val	Face	Fem	1	0.625506313695951
188.641075104051	5.31838280161355	Jitter2	Exp	Val	Face	Fem	1	0.625506313695951
193.978258394733	0.5	cue	Exp	Val	CueName1	Mas	1	0.516934044317168
194.495277251574	4.63690762151418	Jitter1	Exp	Val	CueName1	Mas	1	0.516934044317168
199.115166016247	0.5	target	Exp	Val	Word	Mas	1	0.516934044317168
199.63205366982	2.51836048852056	Jitter2	Exp	Val	Word	Mas	1	0.516934044317168
202.167285589383	0.5	cue	Exp	Val	CueName1	Fem	1	0.740285550677072
202.684320668755	6.03789582972968	Jitter1	Exp	Val	CueName1	Fem	1	0.740285550677072
208.705181419113	0.5	target	Exp	Val	Word	Fem	1	0.740285550677072
209.222071634138	3.21835439795541	Jitter2	Exp	Val	Word	Fem	1	0.740285550677072
212.457783569822	0.5	cue	Exp	Inval	CueName1	Mas	1	0.591830618574022
212.974813241683	3.91975397537317	Jitter1	Exp	Inval	CueName1	Mas	1	0.591830618574022
216.877537545195	0.5	target	Exp	Inval	Face	Mas	1	0.591830618574022
217.394429183249	5.31835121037147	Jitter2	Exp	Inval	Face	Mas	1	0.591830618574022
222.731604504968	0.5	cue	Exp	Val	CueFace2	Mas	1	0.737313127840025
223.248632469194	4.620265867341	Jitter1	Exp	Val	CueFace2	Mas	1	0.737313127840025
227.851870372309	0.5	target	Exp	Val	Face	Mas	1	0.737313127840025
228.368741518747	5.3183748326519	Jitter2	Exp	Val	Face	Mas	1	0.737313127840025
233.705911432955	0.5	cue	Exp	Inval	CueFace2	Mas	1	0.699238850284019
234.222960173403	3.2359373434665	Jitter1	Exp	Inval	CueFace2	Mas	1	0.699238850284019
237.441848776421	0.5	target	Exp	Inval	Word	Mas	1	0.699238850284019
237.958739276053	3.2183657821879	Jitter2	Exp	Inval	Word	Mas	1	0.699238850284019
241.194463449787	0.5	cue	Exp	Val	CueName1	Fem	1	0.621191689964689
241.711492837041	5.33739759883792	Jitter1	Exp	Val	CueName1	Fem	1	0.621191689964689
247.031861048625	0.5	target	Exp	Val	Word	Fem	1	0.621191689964689
247.548758948005	4.6184660203453	Jitter2	Exp	Val	Word	Fem	1	0.621191689964689
252.1854639302	0.5	cue	Exp	Val	CueFace2	Mas	1	0.516963358713838
252.702450057375	2.53543085900856	Jitter1	Exp	Val	CueFace2	Mas	1	0.516963358713838
255.220894789209	0.5	target	Exp	Val	Face	Mas	1	0.516963358713838
255.737803219004	3.91834318448855	Jitter2	Exp	Val	Face	Mas	1	0.516963358713838
259.673994601597	0.5	cue	Exp	Val	CueName1	Mas	1	0.742376549394976
260.191017442919	3.9364239055194	Jitter1	Exp	Val	CueName1	Mas	1	0.742376549394976
264.110418507116	0.5	target	Exp	Val	Word	Mas	1	0.742376549394976
264.627318683344	4.61836014699475	Jitter2	Exp	Val	Word	Mas	1	0.742376549394976
269.264038749647	0.5	cue	Exp	Inval	CueFace2	Mas	1	0.770769961112819
269.781069559931	6.03785484649416	Jitter1	Exp	Inval	CueFace2	Mas	1	0.770769961112819
275.801893596141	0.5	target	Exp	Inval	Word	Mas	1	0.770769961112819
276.320079621315	2.51706553218901	Jitter2	Exp	Inval	Word	Mas	1	0.770769961112819
278.854016869154	0.5	cue	Exp	Val	CueName1	Mas	1	0.668704633837478
279.371046541015	6.03783919317539	Jitter1	Exp	Val	CueName1	Mas	1	0.668704633837478
285.39185606233	0.5	target	Exp	Val	Word	Mas	1	0.668704633837478
285.908817428803	5.31836970974837	Jitter2	Exp	Val	Word	Mas	1	0.668704633837478
291.24597994326	0.5	cue	Exp	Val	CueFace2	Fem	1	0.645198757298203
291.763015591843	6.02120540796568	Jitter1	Exp	Val	CueFace2	Fem	1	0.645198757298203
297.767185351226	0.5	target	Exp	Val	Face	Fem	1	0.645198757298203
298.284077273885	6.01839293357989	Jitter2	Exp	Val	Face	Fem	1	0.645198757298203
304.305075488839	0.5	cue	Exp	Val	CueName1	Mas	1	0.665290787424965
304.82209975319	6.03788814537074	Jitter1	Exp	Val	CueName1	Mas	1	0.665290787424965
310.84296363421	0.5	target	Exp	Val	Word	Mas	1	0.665290787424965
311.359860964381	5.3183984549305	Jitter2	Exp	Val	Word	Mas	1	0.665290787424965
316.697034578465	0.5	cue	Exp	Val	CueFace2	Fem	1	0.711311543154807
317.214066527171	3.91977304396096	Jitter1	Exp	Val	CueFace2	Fem	1	0.711311543154807
321.116807622426	0.5	target	Exp	Val	Face	Fem	1	0.711311543154807
321.633679338074	3.21835183650546	Jitter2	Exp	Val	Face	Fem	1	0.711311543154807
324.869357121064	0.5	cue	Exp	Inval	CueFace2	Fem	1	0.733773485670099
325.386385939108	4.63694661250702	Jitter1	Exp	Inval	CueFace2	Fem	1	0.733773485670099
330.006303733571	0.5	target	Exp	Inval	Word	Fem	1	0.733773485670099
330.523202486771	3.91834802278754	Jitter2	Exp	Inval	Word	Fem	1	0.733773485670099
334.459400984508	0.5	cue	Exp	Val	CueFace2	Mas	1	0.535265218439235
334.976432933216	6.02121024626467	Jitter1	Exp	Val	CueFace2	Mas	1	0.535265218439235
340.980611230772	0.5	target	Exp	Val	Face	Mas	1	0.535265218439235
341.497509699364	3.21835525177448	Jitter2	Exp	Val	Face	Mas	1	0.535265218439235
344.73322021202	0.5	cue	Exp	Val	CueName1	Fem	1	0.702679449641437
345.250245330188	3.23593990491827	Jitter1	Exp	Val	CueName1	Fem	1	0.702679449641437
348.469160116938	0.5	target	Exp	Val	Word	Fem	1	0.702679449641437
348.986058300925	3.91835684556645	Jitter2	Exp	Val	Word	Fem	1	0.702679449641437
352.922268182894	0.5	cue	Exp	Val	CueFace2	Mas	1	0.620724936476108
353.439306108323	5.32071656906555	Jitter1	Exp	Val	CueFace2	Mas	1	0.620724936476108
358.74298475196	0.5	target	Exp	Val	Face	Mas	1	0.620724936476108
359.259885212794	4.61838917678324	Jitter2	Exp	Val	Face	Mas	1	0.620724936476108
363.896564865074	0.5	cue	Exp	Inval	CueName1	Mas	1	0.601841627125395
364.413596244569	6.02120711560019	Jitter1	Exp	Inval	CueName1	Mas	1	0.601841627125395
370.417771980674	0.5	target	Exp	Inval	Face	Mas	1	0.601841627125395
370.934665895575	2.51836817287585	Jitter2	Exp	Inval	Face	Mas	1	0.601841627125395
373.469861954809	0.5	cue	Exp	Val	CueName1	Mas	1	0.713144404422565
373.986880527043	3.93649704920608	Jitter1	Exp	Val	CueName1	Mas	1	0.713144404422565
377.906359004015	0.5	target	Exp	Val	Word	Mas	1	0.713144404422565
378.423222466097	2.51839293357989	Jitter2	Exp	Val	Word	Mas	1	0.713144404422565
380.958451254997	0.5	cue	Exp	Val	CueName1	Fem	1	1.12502675294309
381.475476657772	3.23593478201474	Jitter1	Exp	Val	CueName1	Fem	1	1.12502675294309
384.694386037012	0.5	target	Exp	Val	Word	Fem	1	1.12502675294309
385.211280521124	6.01835735785608	Jitter2	Exp	Val	Word	Fem	1	1.12502675294309
391.2322995123	0.5	cue	Exp	Val	CueName1	Mas	1	0.61360893798701
391.749289054744	5.337367430624	Jitter1	Exp	Val	CueName1	Mas	1	0.61360893798701
397.069666942924	0.5	target	Exp	Val	Word	Mas	1	0.61360893798701
397.5865645577	3.91835542253648	Jitter2	Exp	Val	Word	Mas	1	0.61360893798701
401.52276960137	0.5	cue	Exp	Val	CueFace2	Fem	1	0.716986867149899
402.039798419413	2.53545248904811	Jitter1	Exp	Val	CueFace2	Fem	1	0.716986867149899
404.558222090418	0.5	target	Exp	Val	Face	Fem	1	0.716986867149899
405.075113443867	4.61836982358909	Jitter2	Exp	Val	Face	Fem	1	0.716986867149899
409.711800211291	0.5	cue	Exp	Val	CueName1	Fem	1	0.738321770748371
410.228829029335	4.6369153058713	Jitter1	Exp	Val	CueName1	Fem	1	0.738321770748371
414.848715517162	0.5	target	Exp	Val	Word	Fem	1	0.738321770748371
415.365630492892	6.01834938889442	Jitter2	Exp	Val	Word	Fem	1	0.738321770748371
421.403278430978	0.5	cue	Exp	Val	CueFace2	Mas	1	0.626894336117402
421.920311233504	5.32072140736454	Jitter1	Exp	Val	CueFace2	Mas	1	0.626894336117402
427.223999838343	0.5	target	Exp	Val	Face	Mas	1	0.626894336117402
427.740894322456	3.91835684556463	Jitter2	Exp	Val	Face	Mas	1	0.626894336117402
431.677095097039	0.5	cue	Exp	Inval	CueName1	Fem	1	0.661772206083697
432.194120215207	3.23593620504289	Jitter1	Exp	Inval	CueName1	Fem	1	0.661772206083697
435.413031302081	0.5	target	Exp	Inval	Face	Fem	1	0.661772206083697
435.929930339888	6.01835764246243	Jitter2	Exp	Inval	Face	Fem	1	0.661772206083697
441.950949900274	0.5	cue	Exp	Val	CueFace2	Mas	1	0.647357776795616
442.467950257738	3.93640028323898	Jitter1	Exp	Val	CueFace2	Mas	1	0.647357776795616
446.387350183513	0.5	target	Exp	Val	Face	Mas	1	0.647357776795616
446.904238121693	5.31839077057521	Jitter2	Exp	Val	Face	Mas	1	0.647357776795616
452.241415151046	0.5	cue	Exp	Val	CueName1	Fem	1	0.757865934736401
452.758445676724	2.53539869855376	Jitter1	Exp	Val	CueName1	Fem	1	0.757865934736401
455.276813849599	0.5	target	Exp	Val	Word	Fem	1	0.757865934736401
455.793762124205	4.61837978479343	Jitter2	Exp	Val	Word	Fem	1	0.757865934736401
460.430447753208	0.5	cue	Exp	Inval	CueFace2	Fem	1	0.784609771313626
460.94742334997	2.53546358867425	Jitter1	Exp	Inval	CueFace2	Fem	1	0.784609771313626
463.465911341882	0.5	target	Exp	Inval	Word	Fem	1	0.784609771313626
463.982797572426	6.01831978989321	Jitter2	Exp	Inval	Word	Fem	1	0.784609771313626
