onset	duration	section	btype	validity	stim	gender	accuracy	reaction_time
10.0502312007611	0.5	cue	Exp	Val	CueFace1	Mas	0	1.74146213598397
10.5672611070149	3.23601019805028	Jitter1	Exp	Val	CueFace1	Mas	0	1.74146213598397
13.7862413988114	0.5	target	Exp	Val	Face	Mas	0	1.74146213598397
14.3030735029733	3.91855420616957	Jitter2	Exp	Val	Face	Mas	0	1.74146213598397
18.2393576071136	0.5	cue	Exp	Val	CueName1	Mas	1	0.910396790994128
18.7563914978691	6.03790129988738	Jitter1	Exp	Val	CueName1	Mas	1	0.910396790994128
24.7772589070009	0.5	target	Exp	Val	Word	Mas	1	0.910396790994128
25.2941200411096	5.31828747218242	Jitter2	Exp	Val	Word	Mas	1	0.910396790994128
30.6313760223456	0.5	cue	Exp	Val	CueName1	Fem	1	1.14876851833105
31.1483899905888	2.535455242225	Jitter1	Exp	Val	CueName1	Fem	1	1.14876851833105
33.6668312645706	0.5	target	Exp	Val	Word	Fem	1	1.14876851833105
34.1836869911403	3.9183583963295	Jitter2	Exp	Val	Word	Fem	1	1.14876851833105
38.1198768902559	0.5	cue	Exp	Val	CueName1	Mas	1	0.82711015698078
38.6370106781833	3.9365273011008	Jitter1	Exp	Val	CueName1	Mas	1	0.82711015698078
42.5564041913567	0.5	target	Exp	Val	Word	Mas	1	0.82711015698078
43.0732565026374	4.61839052849609	Jitter2	Exp	Val	Word	Mas	1	0.82711015698078
47.7100283952732	0.5	cue	Exp	Val	CueName1	Mas	1	0.753570185446733
48.2269817421566	3.23590147805226	Jitter1	Exp	Val	CueName1	Mas	1	0.753570185446733
51.4459298733254	0.5	target	Exp	Val	Word	Mas	1	0.753570185446733
51.9628268679571	6.01829911262212	Jitter2	Exp	Val	Word	Mas	1	0.753570185446733
57.9838852486046	0.5	cue	Exp	Val	CueName1	Fem	1	0.930136585902801
58.5009171471083	5.3374194881435	Jitter1	Exp	Val	CueName1	Fem	1	0.930136585902801
63.8213047367481	0.5	target	Exp	Val	Word	Fem	1	0.930136585902801
64.3382042928461	3.21838773934542	Jitter2	Exp	Val	Word	Fem	1	0.930136585902801
67.5738762350902	0.5	cue	Exp	Val	CueFace1	Fem	1	0.74510624818322
68.0909454171542	4.62035588438448	Jitter1	Exp	Val	CueFace1	Fem	1	0.74510624818322
72.6942321194747	0.5	target	Exp	Val	Face	Fem	1	0.74510624818322
73.2110673543175	3.2184153462531	Jitter2	Exp	Val	Face	Fem	1	0.74510624818322
76.4468184173966	0.5	cue	Exp	Inval	CueFace1	Mas	1	0.840568668205378
76.9638113246965	3.23595612265672	Jitter1	Exp	Inval	CueFace1	Mas	1	0.840568668205378
80.1827745400533	0.5	target	Exp	Inval	Word	Mas	1	0.840568668205378
80.6996536044244	2.5183923215227	Jitter2	Exp	Inval	Word	Mas	1	0.840568668205378
83.2348795954476	0.5	cue	Exp	Val	CueFace1	Fem	1	0.920484413052691
83.7519527620152	3.91985187327191	Jitter1	Exp	Val	CueFace1	Fem	1	0.920484413052691
87.6547314687195	0.5	target	Exp	Val	Face	Fem	1	0.920484413052691
88.1715618652379	3.91838258795178	Jitter2	Exp	Val	Face	Fem	1	0.920484413052691
92.1078314544047	0.5	cue	Exp	Val	CueName1	Fem	1	0.917946569526976
92.6248505455787	5.33740298092016	Jitter1	Exp	Val	CueName1	Fem	1	0.917946569526976
97.9452344353249	0.5	target	Exp	Val	Word	Fem	1	0.917946569526976
98.4620950002191	3.91840905643221	Jitter2	Exp	Val	Word	Fem	1	0.917946569526976
102.39835975106	0.5	cue	Exp	Val	CueFace1	Fem	1	1.32750789571764
102.915407302968	6.02124750221628	Jitter1	Exp	Val	CueFace1	Fem	1	1.32750789571764
108.919607253276	0.5	target	Exp	Val	Face	Fem	1	1.32750789571764
109.436479771677	5.31842237605633	Jitter2	Exp	Val	Face	Fem	1	1.32750789571764
114.7737585215	0.5	cue	Exp	Val	CueName1	Mas	1	0.947943327850226
115.290848764505	5.33731987558167	Jitter1	Exp	Val	CueName1	Mas	1	0.947943327850226
120.611078397082	0.5	target	Exp	Val	Word	Mas	1	0.947943327850226
121.127997591084	3.21840623882053	Jitter2	Exp	Val	Word	Mas	1	0.947943327850226
124.363706247672	0.5	cue	Exp	Val	CueName1	Fem	1	1.30628899654039
124.88077599895	4.63702761231798	Jitter1	Exp	Val	CueName1	Fem	1	1.30628899654039
129.50073385999	0.5	target	Exp	Val	Word	Fem	1	1.30628899654039
130.017587309701	5.31838936160602	Jitter2	Exp	Val	Word	Fem	1	1.30628899654039
135.354840444865	0.5	cue	Exp	Val	CueFace1	Mas	1	0.81536640489503
135.871840751955	5.32074149885011	Jitter1	Exp	Val	CueFace1	Mas	1	0.81536640489503
141.175581943715	0.5	target	Exp	Val	Face	Mas	1	0.81536640489503
141.692444216253	3.21829268049805	Jitter2	Exp	Val	Face	Mas	1	0.81536640489503
144.928206094412	0.5	cue	Exp	Val	CueFace1	Fem	1	1.08324792741769
145.445269584328	2.53545353458139	Jitter1	Exp	Val	CueFace1	Fem	1	1.08324792741769
147.963659628993	0.5	target	Exp	Val	Face	Fem	1	1.08324792741769
148.480540685614	3.91838856470531	Jitter2	Exp	Val	Face	Fem	1	1.08324792741769
152.416781814049	0.5	cue	Exp	Val	CueFace1	Mas	1	1.78875192003215
152.933815420196	6.02128165509384	Jitter1	Exp	Val	CueFace1	Mas	1	1.78875192003215
158.938063469142	0.5	target	Exp	Val	Face	Mas	1	1.78875192003215
159.454904396131	2.51844070476727	Jitter2	Exp	Val	Face	Mas	1	1.78875192003215
161.990102780244	0.5	cue	Exp	Val	CueName1	Mas	1	1.20516118309024
162.507223191627	2.53554403971066	Jitter1	Exp	Val	CueName1	Mas	1	1.20516118309024
165.025646819955	0.5	target	Exp	Val	Word	Mas	1	1.20516118309024
165.542509377101	4.61829233896788	Jitter2	Exp	Val	Word	Mas	1	1.20516118309024
170.179245409214	0.5	cue	Exp	Val	CueName1	Fem	1	0.851594925223253
170.696295522586	3.23595299197768	Jitter1	Exp	Val	CueName1	Fem	1	0.851594925223253
173.915198401191	0.5	target	Exp	Val	Word	Fem	1	0.851594925223253
174.432081450064	3.21825938143957	Jitter2	Exp	Val	Word	Fem	1	0.851594925223253
177.66783507461	0.5	cue	Exp	Val	CueFace1	Mas	1	0.975048475742369
178.184853311963	3.91980064395284	Jitter1	Exp	Val	CueFace1	Mas	1	0.975048475742369
182.087635718563	0.5	target	Exp	Val	Face	Mas	1	0.975048475742369
182.604479491623	5.31840729186843	Jitter2	Exp	Val	Face	Mas	1	0.975048475742369
187.941710142808	0.5	cue	Exp	Inval	CueFace1	Mas	1	0.766984297928502
188.458761110003	6.03794456020114	Jitter1	Exp	Inval	CueFace1	Mas	1	0.766984297928502
194.479654703009	0.5	target	Exp	Inval	Word	Mas	1	0.766984297928502
194.99656991251	5.3184289220244	Jitter2	Exp	Inval	Word	Mas	1	0.766984297928502
200.333730265684	0.5	cue	Exp	Val	CueName1	Fem	1	1.04887419303304
200.850763302618	3.23595953794575	Jitter1	Exp	Val	CueName1	Fem	1	1.04887419303304
204.069689803629	0.5	target	Exp	Val	Word	Fem	1	1.04887419303304
204.586568583394	5.31838993082056	Jitter2	Exp	Val	Word	Fem	1	1.04887419303304
209.923755974265	0.5	cue	Exp	Inval	CueName1	Mas	1	1.24587255340884
210.44081320282	5.32083684230383	Jitter1	Exp	Inval	CueName1	Mas	1	1.24587255340884
215.744592816569	0.5	target	Exp	Inval	Face	Mas	1	1.24587255340884
216.261426343766	3.21841876154394	Jitter2	Exp	Inval	Face	Mas	1	1.24587255340884
219.497177691454	0.5	cue	Exp	Val	CueFace1	Fem	1	0.90549471441409
220.014209020745	3.91977844458233	Jitter1	Exp	Val	CueFace1	Fem	1	0.90549471441409
223.916956136036	0.5	target	Exp	Val	Face	Fem	1	0.90549471441409
224.433853699882	4.61833104556354	Jitter2	Exp	Val	Face	Fem	1	0.90549471441409
229.070518010949	0.5	cue	Exp	Inval	CueName1	Fem	1	1.84437927569161
229.587594308196	2.53550846379403	Jitter1	Exp	Inval	CueName1	Fem	1	1.84437927569161
232.106026474743	0.5	target	Exp	Inval	Face	Fem	1	1.84437927569161
232.622904116077	2.51828160927289	Jitter2	Exp	Inval	Face	Fem	1	1.84437927569161
235.158177067309	0.5	cue	Exp	Val	CueName1	Mas	1	0.759241840236427
235.675239988013	4.63692885357705	Jitter1	Exp	Val	CueName1	Mas	1	0.759241840236427
240.295105920886	0.5	target	Exp	Val	Word	Mas	1	0.759241840236427
240.812012022952	2.51825257932614	Jitter2	Exp	Val	Word	Mas	1	0.759241840236427
243.347227768112	0.5	cue	Exp	Inval	CueName1	Mas	1	0.931144380441765
243.864275604628	3.23595925333939	Jitter1	Exp	Inval	CueName1	Mas	1	0.931144380441765
247.083187021452	0.5	target	Exp	Inval	Face	Mas	1	0.931144380441765
247.600078323936	6.01848752267324	Jitter2	Exp	Inval	Face	Mas	1	0.931144380441765
253.637755780162	0.5	cue	Exp	Val	CueName1	Fem	1	0.799432379148129
254.154826385264	4.63699118258046	Jitter1	Exp	Val	CueName1	Fem	1	0.799432379148129
258.774746962743	0.5	target	Exp	Val	Word	Fem	1	0.799432379148129
259.291597850988	6.01825329084204	Jitter2	Exp	Val	Word	Fem	1	0.799432379148129
265.312674731111	0.5	cue	Exp	Val	CueName1	Mas	1	1.00909519631205
265.829684999459	3.93642512707083	Jitter1	Exp	Val	CueName1	Mas	1	1.00909519631205
269.749099858182	0.5	target	Exp	Val	Word	Mas	1	1.00909519631205
270.265979776374	6.01840612497654	Jitter2	Exp	Val	Word	Mas	1	1.00909519631205
276.28704356456	0.5	cue	Exp	Inval	CueFace1	Fem	1	0.854171190738271
276.804063794163	4.63697752142798	Jitter1	Exp	Inval	CueFace1	Fem	1	0.854171190738271
281.424021085988	0.5	target	Exp	Inval	Word	Fem	1	0.854171190738271
281.940835829104	3.91834985810783	Jitter2	Exp	Inval	Word	Fem	1	0.854171190738271
285.877107410521	0.5	cue	Exp	Val	CueFace1	Fem	1	1.11300789244524
286.394159516145	3.23593250025078	Jitter1	Exp	Val	CueFace1	Fem	1	1.11300789244524
289.613039910771	0.5	target	Exp	Val	Face	Fem	1	1.11300789244524
290.12991584446	6.01842747052797	Jitter2	Exp	Val	Face	Fem	1	1.11300789244524
296.167663029481	0.5	cue	Exp	Val	CueName1	Fem	1	0.849855974463935
296.684659067461	3.93648375617886	Jitter1	Exp	Val	CueName1	Fem	1	0.849855974463935
300.604146785659	0.5	target	Exp	Val	Word	Fem	1	0.849855974463935
301.120961813382	2.51827876320021	Jitter2	Exp	Val	Word	Fem	1	0.849855974463935
303.656218541997	0.5	cue	Exp	Val	CueFace1	Mas	1	1.86140704738864
304.173253001967	4.62031063182076	Jitter1	Exp	Val	CueFace1	Mas	1	1.86140704738864
308.776529173818	0.5	target	Exp	Val	Face	Mas	1	1.86140704738864
309.293365262482	5.31843489877792	Jitter2	Exp	Val	Face	Mas	1	1.86140704738864
314.630576560368	0.5	cue	Exp	Val	CueFace1	Mas	1	0.834450179914711
315.147700671645	5.32080382785352	Jitter1	Exp	Val	CueFace1	Mas	1	0.834450179914711
320.451380388222	0.5	target	Exp	Val	Face	Mas	1	0.834450179914711
320.968218184531	2.51853832507913	Jitter2	Exp	Val	Face	Mas	1	0.834450179914711
323.503499673983	0.5	cue	Exp	Inval	CueFace1	Fem	1	1.08886152231389
324.020557471755	5.33743997987222	Jitter1	Exp	Inval	CueFace1	Fem	1	1.08886152231389
329.340939653855	0.5	target	Exp	Inval	Word	Fem	1	1.08886152231389
329.857787696028	6.01847585377254	Jitter2	Exp	Inval	Word	Fem	1	1.08886152231389
335.895466290682	0.5	cue	Exp	Val	CueFace1	Mas	1	0.77393099353867
336.412538034212	4.62034649234374	Jitter1	Exp	Val	CueFace1	Mas	1	0.77393099353867
341.015812783025	0.5	target	Exp	Val	Face	Mas	1	0.77393099353867
341.532650294726	6.01839644832762	Jitter2	Exp	Val	Face	Mas	1	0.77393099353867
347.553734005425	0.5	cue	Exp	Val	CueFace1	Fem	1	0.895172291313429
348.070698167385	5.32075117549903	Jitter1	Exp	Val	CueFace1	Fem	1	0.895172291313429
353.374485180924	0.5	target	Exp	Val	Face	Fem	1	0.895172291313429
353.891316431263	6.01834948812029	Jitter2	Exp	Val	Face	Fem	1	0.895172291313429
359.91239729589	0.5	cue	Exp	Val	CueFace1	Mas	1	0.953776354994261
360.429309943924	2.53541966630837	Jitter1	Exp	Val	CueFace1	Mas	1	0.953776354994261
362.947816962198	0.5	target	Exp	Val	Face	Mas	1	0.953776354994261
363.464699726464	3.21843270730096	Jitter2	Exp	Val	Face	Mas	1	0.953776354994261
366.700400698655	0.5	cue	Exp	Val	CueName1	Mas	1	0.847172411986321
367.217505172028	6.0379715978961	Jitter1	Exp	Val	CueName1	Mas	1	0.847172411986321
373.238372296551	0.5	target	Exp	Val	Word	Mas	1	0.847172411986321
373.755251645529	2.51835646099971	Jitter2	Exp	Val	Word	Mas	1	0.847172411986321
376.290733213931	0.5	cue	Exp	Inval	CueName1	Fem	1	0.873684438212877
376.807543687937	6.02107189949493	Jitter1	Exp	Inval	CueName1	Fem	1	0.873684438212877
382.811805113426	0.5	target	Exp	Inval	Face	Fem	1	0.873684438212877
383.328635225336	4.61845314210768	Jitter2	Exp	Inval	Face	Fem	1	0.873684438212877
387.965370972843	0.5	cue	Exp	Val	CueFace1	Fem	1	0.780569744021705
388.482448123912	2.53546064976399	Jitter1	Exp	Val	CueFace1	Fem	1	0.780569744021705
391.000831622607	0.5	target	Exp	Val	Face	Fem	1	0.780569744021705
391.517712963836	4.61852400933094	Jitter2	Exp	Val	Face	Fem	1	0.780569744021705
396.154448142126	0.5	cue	Exp	Inval	CueName1	Fem	1	1.11111212304968
396.671483455919	3.91978413672769	Jitter1	Exp	Inval	CueName1	Fem	1	1.11111212304968
400.574232278854	0.5	target	Exp	Inval	Face	Fem	1	1.11111212304968
401.091096543643	3.9184173100457	Jitter2	Exp	Inval	Face	Fem	1	1.11111212304968
405.027363286737	0.5	cue	Exp	Val	CueName1	Mas	1	1.24651946585982
405.544398315922	2.53546662651752	Jitter1	Exp	Val	CueName1	Mas	1	1.24651946585982
408.062829913255	0.5	target	Exp	Val	Word	Mas	1	1.24651946585982
408.579684216789	3.91851236889124	Jitter2	Exp	Val	Word	Mas	1	1.24651946585982
412.515914530144	0.5	cue	Exp	Val	CueName1	Fem	1	0.959432356379693
413.032924798492	6.03789162323847	Jitter1	Exp	Val	CueName1	Fem	1	0.959432356379693
419.053806153383	0.5	target	Exp	Val	Word	Fem	1	0.959432356379693
419.570728193459	4.61837829038086	Jitter2	Exp	Val	Word	Fem	1	0.959432356379693
424.207466217822	0.5	cue	Exp	Inval	CueFace1	Fem	1	1.05723054872578
424.724496977899	3.93647550256719	Jitter1	Exp	Inval	CueFace1	Fem	1	1.05723054872578
428.643941720389	0.5	target	Exp	Inval	Word	Fem	1	1.05723054872578
429.160790900991	3.21826877348212	Jitter2	Exp	Inval	Word	Fem	1	1.05723054872578
432.396539971818	0.5	cue	Exp	Val	CueFace1	Mas	1	1.03933472468452
432.913553655455	6.02126913237225	Jitter1	Exp	Val	CueFace1	Mas	1	1.03933472468452
438.91780910419	0.5	target	Exp	Val	Face	Mas	1	1.03933472468452
439.434644908248	4.61841301247478	Jitter2	Exp	Val	Face	Mas	1	1.03933472468452
444.071403993554	0.5	cue	Exp	Inval	CueFace1	Mas	1	1.21821896719848
444.588431338341	2.53546577269663	Jitter1	Exp	Inval	CueFace1	Mas	1	1.21821896719848
447.10686976625	0.5	target	Exp	Inval	Word	Mas	1	1.21821896719848
447.623741715437	4.61847875676722	Jitter2	Exp	Inval	Word	Mas	1	1.21821896719848
452.260509623571	0.5	cue	Exp	Val	CueFace1	Fem	1	1.096507213515
452.777526437887	3.23598629103435	Jitter1	Exp	Val	CueFace1	Fem	1	1.096507213515
455.996495914605	0.5	target	Exp	Val	Face	Fem	1	1.096507213515
456.5133137884	2.51828189387925	Jitter2	Exp	Val	Face	Fem	1	1.096507213515
459.048528964346	0.5	cue	Exp	Inval	CueName1	Mas	1	1.06806241893901
459.565604123163	4.62035446134905	Jitter1	Exp	Inval	CueName1	Mas	1	1.06806241893901
464.168883425695	0.5	target	Exp	Inval	Face	Mas	1	1.06806241893901
464.685741998337	5.31847844369804	Jitter2	Exp	Inval	Face	Mas	1	1.06806241893901
