onset	duration	section	btype	validity	stim	gender	accuracy	reaction_time
43.5713412376372	0.5	cue	Exp	Inval	CueFace1	Fem	1	1.6148198449846
44.0884215193873	5.33752365442706	Jitter1	Exp	Inval	CueFace1	Fem	1	1.6148198449846
49.4088648920642	0.5	target	Exp	Inval	Word	Fem	1	1.6148198449846
49.9257425333981	4.61840418964675	Jitter2	Exp	Inval	Word	Fem	1	1.6148198449846
54.5624791347254	0.5	cue	Exp	Inval	CueName2	Fem	1	0.772892461407537
55.0795002181512	4.62022041129603	Jitter1	Exp	Inval	CueName2	Fem	1	0.772892461407537
59.6826995460215	0.5	target	Exp	Inval	Face	Fem	1	0.772892461407537
60.199613901701	5.31845965961475	Jitter2	Exp	Inval	Face	Fem	1	0.772892461407537
65.5367990157138	0.5	cue	Exp	Val	CueName2	Fem	1	0.77281476360622
66.0538736053168	6.03789560774021	Jitter1	Exp	Val	CueName2	Fem	1	0.77281476360622
72.074694623454	0.5	target	Exp	Val	Word	Fem	1	0.77281476360622
72.5916385782948	4.61844517310237	Jitter2	Exp	Val	Word	Fem	1	0.77281476360622
77.228367495225	0.5	cue	Exp	Inval	CueName2	Fem	1	0.755101942075271
77.7454059396969	3.23595242276133	Jitter1	Exp	Inval	CueName2	Fem	1	0.755101942075271
80.9643199179864	0.5	target	Exp	Inval	Face	Fem	1	0.755101942075271
81.4812052437192	3.91830773622496	Jitter2	Exp	Inval	Face	Fem	1	0.755101942075271
85.4175516768628	0.5	cue	Exp	Val	CueFace1	Mas	1	0.826525573533218
85.9344720092959	2.53531749228023	Jitter1	Exp	Val	CueFace1	Mas	1	0.826525573533218
88.452869169143	0.5	target	Exp	Val	Face	Mas	1	0.826525573533218
88.9697994628314	3.21841989997301	Jitter2	Exp	Val	Face	Mas	1	0.826525573533218
92.2054386752316	0.5	cue	Exp	Val	CueFace1	Mas	1	1.25792111994087
92.7225388794941	3.23601873627013	Jitter1	Exp	Val	CueFace1	Mas	1	1.25792111994087
95.9414574115017	0.5	target	Exp	Val	Face	Mas	1	1.25792111994087
96.4583760362912	5.31840046129037	Jitter2	Exp	Val	Face	Mas	1	1.25792111994087
101.795607541297	0.5	cue	Exp	Val	CueName2	Fem	1	0.999241236868329
102.312642001267	3.9364128889556	Jitter1	Exp	Val	CueName2	Fem	1	0.999241236868329
106.232020430252	0.5	target	Exp	Val	Word	Fem	1	0.999241236868329
106.748938770434	6.0183278579625	Jitter2	Exp	Val	Word	Fem	1	0.999241236868329
112.786579796921	0.5	cue	Exp	Val	CueFace1	Mas	1	0.868286860277294
113.303647271341	4.6203334004058	Jitter1	Exp	Val	CueFace1	Mas	1	0.868286860277294
117.906913197327	0.5	target	Exp	Val	Face	Mas	1	0.868286860277294
118.423783154263	5.31843632181335	Jitter2	Exp	Val	Face	Mas	1	0.868286860277294
123.760931269322	0.5	cue	Exp	Val	CueFace1	Mas	1	0.785692391280463
124.277981098088	3.93651790905824	Jitter1	Exp	Val	CueFace1	Mas	1	0.785692391280463
128.19744917838	0.5	target	Exp	Val	Face	Mas	1	0.785692391280463
128.71433478872	6.01827577482254	Jitter2	Exp	Val	Face	Mas	1	0.785692391280463
134.751982930391	0.5	cue	Exp	Val	CueFace1	Fem	1	0.710747028771948
135.269070042716	4.6203610073153	Jitter1	Exp	Val	CueFace1	Fem	1	0.710747028771948
139.872343937706	0.5	target	Exp	Val	Face	Fem	1	0.710747028771948
140.389198810455	6.01842946277793	Jitter2	Exp	Val	Face	Fem	1	0.710747028771948
146.426901312125	0.5	cue	Exp	Val	CueFace1	Mas	1	0.752709532893277
146.9439437411	2.53543845039349	Jitter1	Exp	Val	CueFace1	Mas	1	0.752709532893277
149.462339762518	0.5	target	Exp	Val	Face	Mas	1	0.752709532893277
149.979251272123	3.91843552491446	Jitter2	Exp	Val	Face	Mas	1	0.752709532893277
153.915430356159	0.5	cue	Exp	Val	CueName2	Mas	1	0.862047983086086
154.432559874977	5.33743997987403	Jitter1	Exp	Val	CueName2	Mas	1	0.862047983086086
159.752870336033	0.5	target	Exp	Val	Word	Mas	1	0.862047983086086
160.269819698413	5.31836773144823	Jitter2	Exp	Val	Word	Mas	1	0.862047983086086
165.607010789179	0.5	cue	Exp	Val	CueFace1	Fem	1	0.558642627973313
166.124018780667	6.02122046451768	Jitter1	Exp	Val	CueFace1	Fem	1	0.558642627973313
172.128231253697	0.5	target	Exp	Val	Face	Fem	1	0.558642627973313
172.645145893985	6.01843970864138	Jitter2	Exp	Val	Face	Fem	1	0.558642627973313
178.682862626019	0.5	cue	Exp	Val	CueFace1	Mas	1	0.82315496897354
179.199801457929	5.32075202932174	Jitter1	Exp	Val	CueFace1	Mas	1	0.82315496897354
184.503614655341	0.5	target	Exp	Val	Face	Mas	1	0.82315496897354
185.020489450602	4.61828266231896	Jitter2	Exp	Val	Face	Mas	1	0.82315496897354
189.657185353082	0.5	cue	Exp	Inval	CueFace1	Mas	1	1.24561697603167
190.174263927187	3.23599625228962	Jitter1	Exp	Inval	CueFace1	Mas	1	1.24561697603167
193.393181605372	0.5	target	Exp	Inval	Word	Mas	1	1.24561697603167
193.910058392885	3.91838372638085	Jitter2	Exp	Inval	Word	Mas	1	1.24561697603167
197.846257968649	0.5	cue	Exp	Val	CueFace1	Fem	1	1.12050245715727
198.363320889352	3.23595669187125	Jitter1	Exp	Val	CueFace1	Fem	1	1.12050245715727
201.582214660521	0.5	target	Exp	Val	Face	Fem	1	1.12050245715727
202.099134139133	3.21842587672472	Jitter2	Exp	Val	Face	Fem	1	1.12050245715727
205.334825150067	0.5	cue	Exp	Val	CueName2	Fem	1	0.812339036769117
205.851878678726	2.5354819953136	Jitter1	Exp	Val	CueName2	Fem	1	0.812339036769117
208.37030714538	0.5	target	Exp	Val	Word	Fem	1	0.812339036769117
208.887229754671	6.0184448315722	Jitter2	Exp	Val	Word	Fem	1	0.812339036769117
214.924942217596	0.5	cue	Exp	Val	CueName2	Mas	1	0.702254915382582
215.441944516941	2.53540202065597	Jitter1	Exp	Val	CueName2	Mas	1	0.702254915382582
217.960344238252	0.5	target	Exp	Val	Word	Mas	1	0.702254915382582
218.47728733927	3.91835099653872	Jitter2	Exp	Val	Word	Mas	1	0.702254915382582
222.41353643671	0.5	cue	Exp	Inval	CueName2	Mas	1	1.07753329692241
222.930554674063	2.53544727321969	Jitter1	Exp	Inval	CueName2	Mas	1	1.07753329692241
225.44898370993	0.5	target	Exp	Inval	Face	Mas	1	1.07753329692241
225.965878143095	4.61843948095702	Jitter2	Exp	Inval	Face	Mas	1	1.07753329692241
230.602566930393	0.5	cue	Exp	Inval	CueFace1	Fem	1	0.776453752874659
231.119628143451	2.53550846379585	Jitter1	Exp	Inval	CueFace1	Fem	1	0.776453752874659
233.638075394188	0.5	target	Exp	Inval	Word	Fem	1	0.776453752874659
234.154954458558	2.51839032927091	Jitter2	Exp	Inval	Word	Fem	1	0.776453752874659
236.690128366441	0.5	cue	Exp	Val	CueName2	Mas	1	0.755389395473685
237.207250200861	4.63697809064433	Jitter1	Exp	Val	CueName2	Mas	1	0.755389395473685
241.827106457085	0.5	target	Exp	Val	Word	Mas	1	0.755389395473685
242.344023374229	4.61844545771055	Jitter2	Exp	Val	Word	Mas	1	0.755389395473685
246.98071813828	0.5	cue	Exp	Val	CueName2	Mas	1	0.765140327064728
247.497782197413	3.93649798654587	Jitter1	Exp	Val	CueName2	Mas	1	0.765140327064728
251.417216124826	0.5	target	Exp	Val	Word	Mas	1	0.765140327064728
251.934082666474	2.51838976005638	Jitter2	Exp	Val	Word	Mas	1	0.765140327064728
254.469234944201	0.5	cue	Exp	Val	CueFace1	Mas	0	NaN
254.986341694432	4.62037865296952	Jitter1	Exp	Val	CueFace1	Mas	0	NaN
259.589613597171	0.5	target	Exp	Val	Face	Mas	0	NaN
260.106482700285	3.21815635358871	Jitter2	Exp	Val	Face	Mas	0	NaN
263.34219277991	0.5	cue	Exp	Val	CueName2	Mas	1	1.08614352235236
263.859185687212	6.03795565988548	Jitter1	Exp	Val	CueName2	Mas	1	1.08614352235236
269.880148439795	0.5	target	Exp	Val	Word	Mas	1	1.08614352235236
270.397038319245	6.01838136414153	Jitter2	Exp	Val	Word	Mas	1	1.08614352235236
276.434716344686	0.5	cue	Exp	Val	CueName2	Fem	1	0.856009754061233
276.951750520047	2.53547288787922	Jitter1	Exp	Val	CueName2	Fem	1	0.856009754061233
279.470189232565	0.5	target	Exp	Val	Word	Fem	1	0.856009754061233
279.987091350129	5.31845510589665	Jitter2	Exp	Val	Word	Fem	1	0.856009754061233
285.324313463092	0.5	cue	Exp	Inval	CueName2	Mas	0	0.78109029082043
285.841331131231	5.32075743686073	Jitter1	Exp	Inval	CueName2	Mas	0	0.78109029082043
291.145070899953	0.5	target	Exp	Inval	Face	Mas	0	0.78109029082043
291.661945695214	2.51830466246611	Jitter2	Exp	Inval	Face	Mas	0	0.78109029082043
294.197202708436	0.5	cue	Exp	Val	CueName2	Fem	1	0.723546674034878
294.714228630188	5.33739444270213	Jitter1	Exp	Val	CueName2	Fem	1	0.723546674034878
300.034597151138	0.5	target	Exp	Val	Word	Fem	1	0.723546674034878
300.551513214459	3.21833537159728	Jitter2	Exp	Val	Word	Fem	1	0.723546674034878
303.787162957331	0.5	cue	Exp	Val	CueFace1	Fem	1	0.650870770345136
304.304291053111	3.2360153209811	Jitter1	Exp	Val	CueFace1	Fem	1	0.650870770345136
307.523178278312	0.5	target	Exp	Val	Face	Fem	1	0.650870770345136
308.040100602997	4.61818418818439	Jitter2	Exp	Val	Face	Fem	1	0.650870770345136
312.676755806629	0.5	cue	Exp	Inval	CueName2	Mas	1	0.911969815684643
313.193821858013	6.02128307813109	Jitter1	Exp	Inval	CueName2	Mas	1	0.911969815684643
319.198038884761	0.5	target	Exp	Inval	Face	Mas	1	0.911969815684643
319.714952955832	6.01834578822309	Jitter2	Exp	Inval	Face	Mas	1	0.911969815684643
325.75264065792	0.5	cue	Exp	Val	CueFace1	Fem	1	0.603982851840556
326.269692478938	6.02127681676939	Jitter1	Exp	Val	CueFace1	Fem	1	0.603982851840556
332.273917474689	0.5	target	Exp	Val	Face	Fem	1	0.603982851840556
332.790791985344	5.31830967155292	Jitter2	Exp	Val	Face	Fem	1	0.603982851840556
338.127977099355	0.5	cue	Exp	Val	CueName2	Mas	1	0.93388714124012
338.645008997861	3.23599767532869	Jitter1	Exp	Val	CueName2	Mas	1	0.93388714124012
341.863974774684	0.5	target	Exp	Val	Word	Mas	1	0.93388714124012
342.380850708372	2.5184629041396	Jitter2	Exp	Val	Word	Mas	1	0.93388714124012
344.916086091438	0.5	cue	Exp	Inval	CueFace1	Mas	1	0.728791133229606
345.433092090676	4.63695332980751	Jitter1	Exp	Inval	CueFace1	Mas	1	0.728791133229606
350.053039421246	0.5	target	Exp	Inval	Word	Mas	1	0.728791133229606
350.569926170014	6.01830338173204	Jitter2	Exp	Inval	Word	Mas	1	0.728791133229606
356.607632371579	0.5	cue	Exp	Val	CueName2	Mas	1	0.758174562764907
357.124632963278	3.23593107721172	Jitter1	Exp	Val	CueName2	Mas	1	0.758174562764907
360.343563448791	0.5	target	Exp	Val	Word	Mas	1	0.758174562764907
360.860480081328	3.2184261613329	Jitter2	Exp	Val	Word	Mas	1	0.758174562764907
364.09619272242	0.5	cue	Exp	Val	CueName2	Mas	1	0.78047126988713
364.613239705111	4.63698235975244	Jitter1	Exp	Val	CueName2	Mas	1	0.78047126988713
369.233175082172	0.5	target	Exp	Val	Word	Mas	1	0.78047126988713
369.750037639318	5.31831308684195	Jitter2	Exp	Val	Word	Mas	1	0.78047126988713
375.08726544443	0.5	cue	Exp	Val	CueName2	Mas	1	0.785926053895309
375.604301042829	3.93644561879591	Jitter1	Exp	Val	CueName2	Mas	1	0.785926053895309
379.523711063226	0.5	target	Exp	Val	Word	Mas	1	0.785926053895309
380.040598665817	3.91824939172329	Jitter2	Exp	Val	Word	Mas	1	0.785926053895309
383.976825279278	0.5	cue	Exp	Val	CueFace1	Mas	1	0.755521737881281
384.493807086892	6.02122217216129	Jitter1	Exp	Val	CueFace1	Mas	1	0.755521737881281
390.49804745144	0.5	target	Exp	Val	Face	Mas	1	0.755521737881281
391.014963230156	2.51838292948014	Jitter2	Exp	Val	Face	Mas	1	0.755521737881281
393.550139699506	0.5	cue	Exp	Val	CueName2	Fem	1	1.0383932436489
394.067205750889	4.63698264436061	Jitter1	Exp	Val	CueName2	Fem	1	1.0383932436489
398.687122343867	0.5	target	Exp	Val	Word	Fem	1	1.0383932436489
399.204035276509	3.91843609412899	Jitter2	Exp	Val	Word	Fem	1	1.0383932436489
403.140274412692	0.5	cue	Exp	Val	CueName2	Fem	1	0.755775892223028
403.65719189905	5.33740582699284	Jitter1	Exp	Val	CueName2	Fem	1	0.755775892223028
408.977680239685	0.5	target	Exp	Val	Word	Fem	1	0.755775892223028
409.494586057144	4.61845228828497	Jitter2	Exp	Val	Word	Fem	1	0.755775892223028
414.131260898681	0.5	cue	Exp	Inval	CueFace1	Fem	1	0.65622622639421
414.648309589018	6.03789105402393	Jitter1	Exp	Inval	CueFace1	Fem	1	0.65622622639421
420.669151952705	0.5	target	Exp	Inval	Word	Fem	1	0.65622622639421
421.186120099168	5.31839106924963	Jitter2	Exp	Inval	Word	Fem	1	0.65622622639421
426.523304074752	0.5	cue	Exp	Inval	CueName2	Fem	1	0.741560894724898
427.040354472732	3.93639979701766	Jitter1	Exp	Inval	CueName2	Fem	1	0.741560894724898
430.959703871769	0.5	target	Exp	Inval	Face	Fem	1	0.741560894724898
431.476669741374	3.21844693766798	Jitter2	Exp	Inval	Face	Fem	1	0.741560894724898
434.712366729062	0.5	cue	Exp	Inval	CueFace1	Mas	1	0.760474759174031
435.229422534581	3.93640691220025	Jitter1	Exp	Inval	CueFace1	Mas	1	0.760474759174031
439.148773641262	0.5	target	Exp	Inval	Word	Mas	1	0.760474759174031
439.66574776448	3.21843555337546	Jitter2	Exp	Inval	Word	Mas	1	0.760474759174031
442.901451582744	0.5	cue	Exp	Val	CueFace1	Fem	1	0.708334981683947
443.418413752453	2.53544641939698	Jitter1	Exp	Val	CueFace1	Fem	1	0.708334981683947
445.936898002141	0.5	target	Exp	Val	Face	Fem	1	0.708334981683947
446.453825734365	3.91845487821229	Jitter2	Exp	Val	Face	Fem	1	0.708334981683947
450.39007198573	0.5	cue	Exp	Val	CueFace1	Fem	1	0.75429650334263
450.907047816592	5.32077451330042	Jitter1	Exp	Val	CueFace1	Fem	1	0.75429650334263
456.210846499031	0.5	target	Exp	Val	Face	Fem	1	0.75429650334263
456.727715886753	2.51843785869278	Jitter2	Exp	Val	Face	Fem	1	0.75429650334263
459.262974038404	0.5	cue	Exp	Val	CueFace1	Fem	1	0.553381946161608
459.779970645601	5.32075516000259	Jitter1	Exp	Val	CueFace1	Fem	1	0.553381946161608
465.083729198406	0.5	target	Exp	Val	Face	Fem	1	0.553381946161608
465.600603993666	2.51827876320021	Jitter2	Exp	Val	Face	Fem	1	0.553381946161608
468.135864991391	0.5	cue	Exp	Val	CueName2	Fem	1	0.875297307926303
468.65288579021	6.03786629318711	Jitter1	Exp	Val	CueName2	Fem	1	0.875297307926303
474.673731284578	0.5	target	Exp	Val	Word	Fem	1	0.875297307926303
475.190675239419	2.51841822078859	Jitter2	Exp	Val	Word	Fem	1	0.875297307926303
477.725884723217	0.5	cue	Exp	Val	CueFace1	Mas	1	0.786652941003922
478.24296585879	3.93647237188634	Jitter1	Exp	Val	CueFace1	Mas	1	0.786652941003922
482.162357095103	0.5	target	Exp	Val	Face	Mas	1	0.786652941003922
482.679245551515	3.9183646576912	Jitter2	Exp	Val	Face	Mas	1	0.786652941003922
486.615431466129	0.5	cue	Exp	Val	CueFace1	Fem	1	1.12909276007304
487.13251687081	3.93646895659731	Jitter1	Exp	Val	CueFace1	Fem	1	1.12909276007304
491.051900422726	0.5	target	Exp	Val	Face	Fem	1	1.12909276007304
491.568814493798	4.61837430587912	Jitter2	Exp	Val	Face	Fem	1	1.12909276007304
496.205551948948	0.5	cue	Exp	Val	CueName2	Fem	1	0.799356388994056
496.722588970384	3.23595697647943	Jitter1	Exp	Val	CueName2	Fem	1	0.799356388994056
499.941508925427	0.5	target	Exp	Val	Word	Fem	1	0.799356388994056
500.458382297651	3.2	Jitter2	Exp	Val	Word	Fem	1	0.799356388994056
