onset	duration	section	btype	validity	stim	gender	accuracy	reaction_time
10.0796453678886	0.5	cue	Att	Val	CueFace1	Mas	0	1.32478135753627
10.596666166708	2.53540002840236	Jitter1	Att	Val	CueFace1	Mas	0	1.32478135753627
13.115045396291	0.5	target	Att	Val	Face	Mas	0	1.32478135753627
13.6320744487239	3.91905369202505	Jitter2	Att	Val	Face	Mas	0	1.32478135753627
17.568239586999	0.5	cue	Att	Val	CueFace1	Mas	1	1.20757749928453
18.0852820159744	3.23589578590691	Jitter1	Att	Val	CueFace1	Mas	1	1.20757749928453
21.3041353729059	0.5	target	Att	Val	Face	Mas	1	1.20757749928453
21.8211242957041	4.6183993513223	Jitter2	Att	Val	Face	Mas	1	1.20757749928453
26.4579001728416	0.5	cue	Att	Inval	CueName1	Mas	1	0.596953904710972
26.9748065595159	4.63680106488755	Jitter1	Att	Inval	CueName1	Mas	1	0.596953904710972
31.5947012377292	0.5	target	Att	Inval	Face	Mas	1	0.596953904710972
32.1116853222011	3.21840453117693	Jitter2	Att	Inval	Face	Mas	1	0.596953904710972
35.3473399033974	0.5	cue	Att	Val	CueName1	Mas	1	0.560737907107978
35.8644347001209	2.53552810170004	Jitter1	Att	Val	CueName1	Mas	1	0.560737907107978
38.3828680050974	0.5	target	Att	Val	Word	Mas	1	0.560737907107978
38.8997903297823	3.9183985259624	Jitter2	Att	Val	Word	Mas	1	0.560737907107978
42.8359978745539	0.5	cue	Att	Inval	CueName1	Mas	1	0.888031778114964
43.3530411573483	2.53547317248376	Jitter1	Att	Inval	CueName1	Mas	1	0.888031778114964
45.8714710470376	0.5	target	Att	Inval	Face	Mas	1	0.888031778114964
46.3883970716197	5.31840899950839	Jitter2	Att	Inval	Face	Mas	1	0.888031778114964
51.7255264025953	0.5	cue	Att	Inval	CueFace1	Fem	1	1.32644944107597
52.2426209147088	2.53553407845175	Jitter1	Att	Inval	CueFace1	Fem	1	1.32644944107597
54.761060481047	0.5	target	Att	Inval	Word	Fem	1	1.32644944107597
55.2779793904447	5.31838366945885	Jitter2	Att	Inval	Word	Fem	1	1.32644944107597
60.6151727580691	0.5	cue	Att	Inval	CueName1	Mas	0	1.440278994869
61.1321972567821	3.23596124559117	Jitter1	Att	Inval	CueName1	Mas	0	1.440278994869
64.3511340036603	0.5	target	Att	Inval	Face	Mas	0	1.440278994869
64.8680472209089	3.91839909517512	Jitter2	Att	Inval	Face	Mas	0	1.440278994869
68.8042590347868	0.5	cue	Att	Val	CueName1	Fem	1	0.681215888031147
69.3213003253331	6.03792691454873	Jitter1	Att	Val	CueName1	Fem	1	0.681215888031147
75.3421859493355	0.5	target	Att	Val	Word	Fem	1	0.681215888031147
75.8591361655381	4.61837174441098	Jitter2	Att	Val	Word	Fem	1	0.681215888031147
80.4958181222573	0.5	cue	Att	Inval	CueName1	Fem	1	0.718221386359801
81.0128622588782	6.02125290975528	Jitter1	Att	Inval	CueName1	Fem	1	0.718221386359801
87.0170710320126	0.5	target	Att	Inval	Face	Fem	1	0.718221386359801
87.5339822570095	5.31837399280994	Jitter2	Att	Inval	Face	Fem	1	0.718221386359801
92.8711784707084	0.5	cue	Att	Inval	CueFace1	Mas	1	0.858644933290634
93.3882154921448	5.33744026448039	Jitter1	Att	Inval	CueFace1	Mas	1	0.858644933290634
98.7086187351888	0.5	target	Att	Inval	Word	Mas	1	0.858644933290634
99.2255347985119	3.91851919946566	Jitter2	Att	Inval	Word	Mas	1	0.858644933290634
103.161749743071	0.5	cue	Att	Val	CueName1	Fem	1	1.17595762538622
103.678775095606	5.33746018699094	Jitter1	Att	Val	CueName1	Fem	1	1.17595762538622
108.999209930062	0.5	target	Att	Val	Word	Fem	1	1.17595762538622
109.516111478413	6.01847556916255	Jitter2	Att	Val	Word	Fem	1	1.17595762538622
115.553800318932	0.5	cue	Att	Inval	CueName1	Fem	0	NaN
116.070826809897	2.5354666265157	Jitter1	Att	Inval	CueName1	Fem	0	NaN
118.589266945448	0.5	target	Att	Inval	Face	Fem	0	NaN
119.10617987809	4.6181850420071	Jitter2	Att	Inval	Face	Fem	0	NaN
123.742951201511	0.5	cue	Att	Inval	CueFace1	Fem	1	0.762747633274557
124.25992731698	5.33736825882806	Jitter1	Att	Inval	CueFace1	Fem	1	0.762747633274557
129.58031946034	0.5	target	Att	Inval	Word	Fem	1	0.762747633274557
130.097244346489	2.51839317534541	Jitter2	Att	Inval	Word	Fem	1	0.762747633274557
132.632403454791	0.5	cue	Att	Val	CueFace1	Fem	1	1.43506299640649
133.149471213819	2.53550504850864	Jitter1	Att	Val	CueFace1	Fem	1	1.43506299640649
135.667908503299	0.5	target	Att	Val	Face	Fem	1	1.43506299640649
136.18483509709	3.21842502290383	Jitter2	Att	Val	Face	Fem	1	1.43506299640649
139.420550584255	0.5	cue	Att	Val	CueFace1	Mas	1	0.813971828996728
139.937652496163	3.93647948707076	Jitter1	Att	Val	CueFace1	Mas	1	0.813971828996728
143.857030071325	0.5	target	Att	Val	Face	Mas	1	0.813971828996728
144.373923081454	2.51841679775316	Jitter2	Att	Val	Face	Mas	1	0.813971828996728
146.909173264103	0.5	cue	Att	Inval	CueFace1	Mas	1	2.24778824531677
147.426174709621	6.03795423685006	Jitter1	Att	Inval	CueFace1	Mas	1	2.24778824531677
153.447127500953	0.5	target	Att	Inval	Word	Mas	1	2.24778824531677
153.96403445684	6.01839274843223	Jitter2	Att	Inval	Word	Mas	1	2.24778824531677
160.001713051493	0.5	cue	Att	Val	CueName1	Mas	1	0.59720891287725
160.518751495965	3.23592936956993	Jitter1	Att	Val	CueName1	Mas	1	0.59720891287725
163.737642421063	0.5	target	Att	Val	Word	Mas	1	0.59720891287725
164.254609998312	6.0183788026734	Jitter2	Att	Val	Word	Mas	1	0.59720891287725
170.29227863171	0.5	cue	Att	Val	CueFace1	Mas	1	1.92918798968822
170.809310530214	6.02125917111334	Jitter1	Att	Val	CueFace1	Mas	1	1.92918798968822
176.813537802824	0.5	target	Att	Val	Face	Mas	1	1.92918798968822
177.330447320179	5.31836317773195	Jitter2	Att	Val	Face	Mas	1	1.92918798968822
182.667642395449	0.5	cue	Att	Val	CueName1	Mas	0	NaN
183.184687670499	5.33744424898396	Jitter1	Att	Val	CueName1	Mas	0	NaN
188.505086644433	0.5	target	Att	Val	Word	Mas	0	NaN
189.022005838433	5.31816765250187	Jitter2	Att	Val	Word	Mas	0	NaN
194.359202621348	0.5	cue	Att	Val	CueName1	Fem	0	NaN
194.876212605086	3.93645728769843	Jitter1	Att	Val	CueName1	Fem	0	NaN
198.795659909047	0.5	target	Att	Val	Word	Fem	0	NaN
199.312567434146	3.21818111442553	Jitter2	Att	Val	Word	Fem	0	NaN
202.548288898066	0.5	cue	Att	Val	CueFace1	Fem	1	0.677558399285772
203.065347265052	5.32075715225437	Jitter1	Att	Val	CueFace1	Fem	1	0.677558399285772
208.36904605032	0.5	target	Att	Val	Face	Fem	1	0.677558399285772
208.885965813537	3.91829805957605	Jitter2	Att	Val	Face	Fem	1	0.677558399285772
212.822130097993	0.5	cue	Att	Val	CueName1	Fem	1	0.852877935049037
213.339183626653	2.53548882588802	Jitter1	Att	Val	CueName1	Fem	1	0.852877935049037
215.857618923881	0.5	target	Att	Val	Word	Fem	1	0.852877935049037
216.374564870974	2.5184011443489	Jitter2	Att	Val	Word	Fem	1	0.852877935049037
218.909793708073	0.5	cue	Att	Val	CueName1	Mas	1	0.631643268625339
219.426825891183	4.63699858236942	Jitter1	Att	Val	CueName1	Mas	1	0.631643268625339
224.046792290443	0.5	target	Att	Val	Word	Mas	1	0.631643268625339
224.563668793347	4.61844375006694	Jitter2	Att	Val	Word	Mas	1	0.631643268625339
229.200360142109	0.5	cue	Att	Inval	CueFace1	Mas	0	2.08958812481433
229.717392325223	3.93645358780486	Jitter1	Att	Inval	CueFace1	Mas	0	2.08958812481433
233.636813729914	0.5	target	Att	Inval	Word	Mas	0	2.08958812481433
234.153730931666	4.61846566482927	Jitter2	Att	Inval	Word	Mas	0	2.08958812481433
238.790434518542	0.5	cue	Att	Val	CueFace1	Fem	1	0.839642555969476
239.307459017255	4.6202833095158	Jitter1	Att	Val	CueFace1	Fem	1	0.839642555969476
243.910717828057	0.5	target	Att	Val	Face	Fem	1	0.839642555969476
244.427619661015	4.61851148660935	Jitter2	Att	Val	Face	Fem	1	0.839642555969476
249.064300194699	0.5	cue	Att	Val	CueName1	Fem	0	NaN
249.581354861792	4.63697495996166	Jitter1	Att	Val	CueName1	Fem	0	NaN
254.201275154661	0.5	target	Att	Val	Word	Fem	0	NaN
254.718193779452	3.91822889999457	Jitter2	Att	Val	Word	Fem	0	NaN
258.654397624327	0.5	cue	Att	Inval	CueFace1	Mas	0	1.29578641700209
259.171443753195	3.23603154359807	Jitter1	Att	Inval	CueFace1	Mas	0	1.29578641700209
262.390429167925	0.5	target	Att	Inval	Word	Mas	0	1.29578641700209
262.907287455961	3.21840623881872	Jitter2	Att	Inval	Word	Mas	0	1.29578641700209
266.14301290438	0.5	cue	Att	Inval	CueFace1	Mas	1	1.13425468314381
266.660030572519	4.63693966865321	Jitter1	Att	Inval	CueFace1	Mas	1	1.13425468314381
271.279952573033	0.5	target	Att	Inval	Word	Mas	1	1.13425468314381
271.796868636357	5.31845738275661	Jitter2	Att	Inval	Word	Mas	1	1.13425468314381
277.134062003981	0.5	cue	Att	Val	CueFace1	Mas	1	0.687206587634137
277.651092194843	4.6368659553591	Jitter1	Att	Val	CueFace1	Mas	1	0.687206587634137
282.27092795934	0.5	target	Att	Val	Face	Mas	1	0.687206587634137
282.787926843394	6.01846617712363	Jitter2	Att	Val	Face	Mas	1	0.687206587634137
288.825613976267	0.5	cue	Att	Inval	CueName1	Fem	1	0.803496002550673
289.342652420743	4.63694564540856	Jitter1	Att	Inval	CueName1	Fem	1	0.803496002550673
293.962559621676	0.5	target	Att	Inval	Face	Fem	1	0.803496002550673
294.47948194636	6.01842490905983	Jitter2	Att	Inval	Face	Fem	1	0.803496002550673
300.517135210965	0.5	cue	Att	Val	CueName1	Mas	1	1.71896051158546
301.034189593447	6.03789788459835	Jitter1	Att	Val	CueName1	Mas	1	1.71896051158546
307.055033095563	0.5	target	Att	Val	Word	Mas	1	1.71896051158546
307.572020595326	3.21845632970872	Jitter2	Att	Val	Word	Mas	1	1.71896051158546
310.807700506572	0.5	cue	Att	Val	CueFace1	Fem	1	0.601842889354884
311.324766557955	3.93641829649641	Jitter1	Att	Val	CueFace1	Fem	1	0.601842889354884
315.244118803068	0.5	target	Att	Val	Face	Fem	1	0.601842889354884
315.761112848795	5.31848555888428	Jitter2	Att	Val	Face	Fem	1	0.601842889354884
321.098302801132	0.5	cue	Att	Inval	CueName1	Fem	0	NaN
321.615336122675	5.32076085214794	Jitter1	Att	Inval	CueName1	Fem	0	NaN
326.91906365328	0.5	target	Att	Inval	Face	Fem	0	NaN
327.435977155139	2.51828530916828	Jitter2	Att	Inval	Face	Fem	0	NaN
329.971157039778	0.5	cue	Att	Val	CueFace1	Fem	0	NaN
330.488255536395	3.23601674401652	Jitter1	Att	Val	CueFace1	Fem	0	NaN
333.707173783794	0.5	target	Att	Val	Face	Fem	0	NaN
334.224104646699	2.51821984948037	Jitter2	Att	Val	Face	Fem	0	NaN
336.759274000866	0.5	cue	Att	Inval	CueName1	Mas	0	NaN
337.276348021252	5.32080098177903	Jitter1	Att	Inval	CueName1	Mas	0	NaN
342.580074982645	0.5	target	Att	Inval	Face	Mas	0	NaN
343.096987346074	4.61824310190059	Jitter2	Att	Inval	Face	Mas	0	NaN
347.73363685756	0.5	cue	Att	Inval	CueFace1	Fem	1	0.734098490644101
348.250730231248	6.0379152456444	Jitter1	Att	Inval	CueFace1	Fem	1	0.734098490644101
354.271552103204	0.5	target	Att	Inval	Word	Fem	1	0.734098490644101
354.788549564222	6.01852082172991	Jitter2	Att	Inval	Word	Fem	1	0.734098490644101
360.826247512177	0.5	cue	Att	Inval	CueFace1	Fem	1	0.651489506672078
361.343264326493	3.23588127092808	Jitter1	Att	Inval	CueFace1	Fem	1	0.651489506672078
364.562128783105	0.5	target	Att	Inval	Word	Fem	1	0.651489506672078
365.079119128943	3.21849133641081	Jitter2	Att	Inval	Word	Fem	1	0.651489506672078
368.314834331497	0.5	cue	Att	Val	CueName1	Fem	1	0.530741433391086
368.831861960894	3.23596323784295	Jitter1	Att	Val	CueName1	Fem	1	0.530741433391086
372.05079756934	0.5	target	Att	Val	Word	Fem	1	0.530741433391086
372.567707371301	5.3185191425473	Jitter2	Att	Val	Word	Fem	1	0.530741433391086
377.904905861858	0.5	cue	Att	Val	CueFace1	Mas	1	0.655841437288473
378.421888523295	5.32076625968693	Jitter1	Att	Val	CueFace1	Mas	1	0.655841437288473
383.725672121545	0.5	target	Att	Val	Face	Mas	1	0.655841437288473
384.242582208113	3.21850215148879	Jitter2	Att	Val	Face	Mas	1	0.655841437288473
387.478308225749	0.5	cue	Att	Inval	CueFace1	Mas	0	NaN
387.995338701217	2.53545837290585	Jitter1	Att	Inval	CueFace1	Mas	0	NaN
390.513766598655	0.5	target	Att	Inval	Word	Mas	0	NaN
391.03068863873	2.51832970791293	Jitter2	Att	Inval	Word	Mas	0	NaN
393.565912922113	0.5	cue	Att	Val	CueName1	Mas	0	NaN
394.082966735379	3.93647322570541	Jitter1	Att	Val	CueName1	Mas	0	NaN
398.002386147818	0.5	target	Att	Val	Word	Mas	0	NaN
398.519293957532	2.51821216508324	Jitter2	Att	Val	Word	Mas	0	NaN
401.054558939759	0.5	cue	Att	Val	CueFace1	Fem	0	NaN
401.571547862557	6.02121363394326	Jitter1	Att	Val	CueFace1	Fem	0	NaN
407.575772573702	0.5	target	Att	Val	Face	Fem	0	NaN
408.092664730008	6.01827691325161	Jitter2	Att	Val	Face	Fem	0	NaN
414.130374916076	0.5	cue	Att	Inval	CueName1	Fem	0	NaN
414.647401691647	3.23598885249885	Jitter1	Att	Inval	CueName1	Fem	0	NaN
417.866363768575	0.5	target	Att	Inval	Face	Fem	0	NaN
418.383254217239	3.21825710458143	Jitter2	Att	Inval	Face	Fem	0	NaN
421.618983650162	0.5	cue	Att	Inval	CueName1	Mas	1	0.677809422952123
422.136010994949	3.93644362654595	Jitter1	Att	Inval	CueName1	Mas	1	0.677809422952123
426.055427276708	0.5	target	Att	Inval	Face	Mas	1	0.677809422952123
426.572348178357	6.01851399115185	Jitter2	Att	Inval	Face	Mas	1	0.677809422952123
432.610031611337	0.5	cue	Att	Inval	CueFace1	Fem	1	1.09476655511025
433.127063225231	3.93647635638627	Jitter1	Att	Inval	CueFace1	Fem	1	1.09476655511025
437.046507967723	0.5	target	Att	Inval	Word	Fem	1	1.09476655511025
437.563411792933	4.61840276660951	Jitter2	Att	Inval	Word	Fem	1	1.09476655511025
442.200044227979	0.5	cue	Att	Inval	CueName1	Mas	0	1.95572648438974
442.717108571716	6.02132263854946	Jitter1	Att	Inval	CueName1	Mas	0	1.95572648438974
448.721366866528	0.5	target	Att	Inval	Face	Mas	0	1.95572648438974
449.238275814667	2.51855853219968	Jitter2	Att	Inval	Face	Mas	0	1.95572648438974
451.773451714802	0.5	cue	Att	Inval	CueName1	Fem	1	0.739077411202743
452.290535696447	3.93650481712029	Jitter1	Att	Inval	CueName1	Fem	1	0.739077411202743
456.209956531922	0.5	target	Att	Inval	Face	Fem	1	0.739077411202743
456.726855234199	3.91853883737349	Jitter2	Att	Inval	Face	Fem	1	0.739077411202743
460.663085547556	0.5	cue	Att	Inval	CueFace1	Fem	0	NaN
461.18011744606	4.63695987577375	Jitter1	Att	Inval	CueFace1	Fem	0	NaN
465.80004542333	0.5	target	Att	Inval	Word	Fem	0	NaN
466.316930179844	3.91831542062573	Jitter2	Att	Inval	Word	Fem	0	NaN
