onset	duration	section	btype	validity	stim	gender	accuracy	reaction_time
10.3240066563963	0.5	cue	Exp	Val	CueFace2	Fem	1	0.846244307497727
10.8411213756326	5.33751283934771	Jitter1	Exp	Val	CueFace2	Fem	1	0.846244307497727
16.161519495744	0.5	target	Exp	Val	Face	Fem	1	0.846244307497727
16.6783214315292	3.92080886540452	Jitter2	Exp	Val	Face	Fem	1	0.846244307497727
20.6144939695978	0.5	cue	Exp	Inval	CueName2	Mas	1	0.997612144536106
21.1315474982589	2.53552411719784	Jitter1	Exp	Inval	CueName2	Mas	1	0.997612144536106
23.6500180867956	0.5	target	Exp	Inval	Face	Mas	1	0.997612144536106
24.1668780824753	3.91954663191427	Jitter2	Exp	Inval	Face	Mas	1	0.997612144536106
28.1031334412755	0.5	cue	Exp	Val	CueName2	Mas	1	0.79918818606393
28.6201328945449	3.26927624072414	Jitter1	Exp	Val	CueName2	Mas	1	0.79918818606393
31.8724096819997	0.5	target	Exp	Val	Word	Mas	1	0.79918818606393
32.3893553444846	4.61842496598229	Jitter2	Exp	Val	Word	Mas	1	0.79918818606393
37.0261075992148	0.5	cue	Exp	Val	CueFace2	Mas	1	0.768113619797987
37.5430709073539	5.33738078154875	Jitter1	Exp	Val	CueFace2	Mas	1	0.768113619797987
42.8634883807636	0.5	target	Exp	Val	Face	Mas	1	0.768113619797987
43.3803517917313	5.31822201249815	Jitter2	Exp	Val	Face	Mas	1	0.768113619797987
48.7175915503499	0.5	cue	Exp	Inval	CueFace2	Fem	1	1.05793865175247
49.2346425175451	3.23597889124403	Jitter1	Exp	Inval	CueFace2	Fem	1	1.05793865175247
52.4535704415939	0.5	target	Exp	Inval	Word	Fem	1	1.05793865175247
52.9704768282677	3.91845829349995	Jitter2	Exp	Inval	Word	Fem	1	1.05793865175247
56.9067572325125	0.5	cue	Exp	Val	CueFace2	Fem	1	0.631999027781148
57.4236533733224	5.32066693173101	Jitter1	Exp	Val	CueFace2	Fem	1	0.631999027781148
62.7274241642435	0.5	target	Exp	Val	Face	Fem	1	0.631999027781148
63.2443000979333	3.91836465768984	Jitter2	Exp	Val	Face	Fem	1	0.631999027781148
67.1805807867854	0.5	cue	Exp	Val	CueFace2	Mas	1	0.649870660200577
67.6975677173327	4.63690409273886	Jitter1	Exp	Val	CueFace2	Mas	1	0.649870660200577
72.3174848795243	0.5	target	Exp	Val	Face	Mas	1	0.649870660200577
72.8343494289211	2.51835617639154	Jitter2	Exp	Val	Face	Mas	1	0.649870660200577
75.3696172572222	0.5	cue	Exp	Inval	CueFace2	Mas	1	1.05015008767305
75.8866505787632	2.53551728662205	Jitter1	Exp	Inval	CueFace2	Mas	1	1.05015008767305
78.4051345438443	0.5	target	Exp	Inval	Word	Mas	1	1.05015008767305
78.9219609558595	5.31830853312522	Jitter2	Exp	Inval	Word	Mas	1	1.05015008767305
84.2591830688239	0.5	cue	Exp	Val	CueName2	Mas	1	0.714150932387838
84.7762166749726	6.03792321465107	Jitter1	Exp	Val	CueName2	Mas	1	0.714150932387838
90.7971062834749	0.5	target	Exp	Val	Word	Mas	1	0.714150932387838
91.313988478526	3.2183359408109	Jitter2	Exp	Val	Word	Mas	1	0.714150932387838
94.5497310033861	0.5	cue	Exp	Val	CueFace2	Fem	1	1.04956920412133
95.0667643249271	3.23591798527605	Jitter1	Exp	Val	CueFace2	Fem	1	1.04956920412133
98.2856489886622	0.5	target	Exp	Val	Face	Fem	1	1.04956920412133
98.8025505370115	5.31853052683937	Jitter2	Exp	Val	Face	Fem	1	1.04956920412133
104.139817333326	0.5	cue	Exp	Val	CueName2	Mas	1	0.885961544427573
104.656848662616	5.33740070406157	Jitter1	Exp	Val	CueName2	Mas	1	0.885961544427573
109.977218037388	0.5	target	Exp	Val	Word	Mas	1	0.885961544427573
110.494099663224	3.91841503318665	Jitter2	Exp	Val	Word	Mas	1	0.885961544427573
114.430339368621	0.5	cue	Exp	Val	CueName2	Fem	1	0.815801000281226
114.947371836341	4.63693909943959	Jitter1	Exp	Val	CueName2	Fem	1	0.815801000281226
119.567278468061	0.5	target	Exp	Val	Word	Fem	1	0.815801000281226
120.084168062903	3.21834874814022	Jitter2	Exp	Val	Word	Fem	1	0.815801000281226
123.319909733941	0.5	cue	Exp	Val	CueFace2	Mas	1	0.89165226790783
123.836958993492	2.53547374170103	Jitter1	Exp	Val	CueFace2	Mas	1	0.89165226790783
126.355383475642	0.5	target	Exp	Val	Face	Mas	1	0.89165226790783
126.872255709437	3.21840196971016	Jitter2	Exp	Val	Face	Mas	1	0.89165226790783
130.107997095867	0.5	cue	Exp	Inval	CueName2	Fem	1	0.787059929480165
130.625032125052	3.23596010716028	Jitter1	Exp	Inval	CueName2	Fem	1	0.787059929480165
133.843957203027	0.5	target	Exp	Inval	Face	Fem	1	0.787059929480165
134.360818052529	6.01831561984773	Jitter2	Exp	Inval	Face	Fem	1	0.787059929480165
140.398515715874	0.5	cue	Exp	Inval	CueFace2	Fem	1	0.831352229172808
140.915544199091	4.63700655137609	Jitter1	Exp	Inval	CueFace2	Fem	1	0.831352229172808
145.53552226725	0.5	target	Exp	Inval	Word	Fem	1	0.831352229172808
146.052372870888	6.0184132401605	Jitter2	Exp	Inval	Word	Fem	1	0.831352229172808
152.090075372558	0.5	cue	Exp	Val	CueName2	Fem	1	0.931795846611294
152.607108124885	4.63694991451803	Jitter1	Exp	Val	CueName2	Fem	1	0.931795846611294
157.227025287076	0.5	target	Exp	Val	Word	Fem	1	0.931795846611294
157.74388158286	2.51840142895662	Jitter2	Exp	Val	Word	Fem	1	0.931795846611294
160.279158803203	0.5	cue	Exp	Val	CueFace2	Mas	1	1.28635453022298
160.796185578776	6.02126059415195	Jitter1	Exp	Val	CueFace2	Mas	1	1.28635453022298
166.800419397355	0.5	target	Exp	Val	Face	Mas	1	1.28635453022298
167.317281954501	6.01852822151977	Jitter2	Exp	Val	Face	Mas	1	1.28635453022298
173.354994417427	0.5	cue	Exp	Val	CueFace2	Mas	1	0.831310391895386
173.872024608288	3.93643964204375	Jitter1	Exp	Val	CueFace2	Mas	1	0.831310391895386
177.791434059471	0.5	target	Exp	Val	Face	Mas	1	0.831310391895386
178.308323654313	3.21839115463217	Jitter2	Exp	Val	Face	Mas	1	0.831310391895386
181.544065609958	0.5	cue	Exp	Val	CueName2	Fem	1	0.89264042454306
182.061095231603	6.03792691454646	Jitter1	Exp	Val	CueName2	Fem	1	0.89264042454306
188.081992524504	0.5	target	Exp	Val	Word	Fem	1	0.89264042454306
188.598869027408	5.31841782233869	Jitter2	Exp	Val	Word	Fem	1	0.89264042454306
193.936086017441	0.5	cue	Exp	Val	CueName2	Mas	1	0.642086080624267
194.453117631339	3.93641459659921	Jitter1	Exp	Val	CueName2	Mas	1	0.642086080624267
198.37250061404	0.5	target	Exp	Val	Word	Mas	1	0.642086080624267
198.889419523437	2.51838662937553	Jitter2	Exp	Val	Word	Mas	1	0.642086080624267
201.42461790755	0.5	cue	Exp	Inval	CueName2	Mas	1	0.889083971399486
201.941666028672	5.3208300117285	Jitter1	Exp	Inval	CueName2	Mas	1	0.889083971399486
207.245447919278	0.5	target	Exp	Inval	Face	Mas	1	0.889083971399486
207.762309053388	5.31839050003509	Jitter2	Exp	Inval	Face	Mas	1	0.889083971399486
213.09953771232	0.5	cue	Exp	Val	CueName2	Fem	1	1.0144446756085
213.616580710511	3.93647607178173	Jitter1	Exp	Val	CueName2	Fem	1	1.0144446756085
217.536013784102	0.5	target	Exp	Val	Word	Fem	1	1.0144446756085
218.052857272557	6.01849663010717	Jitter2	Exp	Val	Word	Fem	1	1.0144446756085
224.090570304698	0.5	cue	Exp	Val	CueFace2	Mas	1	1.95139589932069
224.607542720271	3.93644419576094	Jitter1	Exp	Val	CueFace2	Mas	1	1.95139589932069
228.527014500459	0.5	target	Exp	Val	Face	Mas	1	1.95139589932069
229.043879049856	3.91833875842303	Jitter2	Exp	Val	Face	Mas	1	1.95139589932069
232.980104524886	0.5	cue	Exp	Val	CueFace2	Mas	1	1.05032312892718
233.497192206427	3.23595441501402	Jitter1	Exp	Val	CueFace2	Mas	1	1.05032312892718
236.7160589399	0.5	target	Exp	Val	Face	Mas	1	1.05032312892718
237.232953942281	2.51841992843265	Jitter2	Exp	Val	Face	Mas	1	1.05032312892718
239.768228885765	0.5	cue	Exp	Val	CueFace2	Fem	1	1.956778393067
240.285270176311	6.02126230179601	Jitter1	Exp	Val	CueFace2	Fem	1	1.956778393067
246.289491187561	0.5	target	Exp	Val	Face	Fem	1	1.956778393067
246.80633524523	3.21831801054941	Jitter2	Exp	Val	Face	Fem	1	1.956778393067
250.042098261818	0.5	cue	Exp	Inval	CueFace2	Fem	1	1.10620890803875
250.55909316137	6.03794512941522	Jitter1	Exp	Inval	CueFace2	Fem	1	1.10620890803875
256.580043391233	0.5	target	Exp	Inval	Word	Fem	1	1.10620890803875
257.096907086808	3.21843270730142	Jitter2	Exp	Inval	Word	Fem	1	1.10620890803875
260.332651034704	0.5	cue	Exp	Inval	CueName2	Fem	1	1.18426189793809
260.849641665146	6.02126173258102	Jitter1	Exp	Inval	CueName2	Fem	1	1.18426189793809
266.853912767285	0.5	target	Exp	Inval	Face	Fem	1	1.18426189793809
267.37075312506	4.61840248200315	Jitter2	Exp	Inval	Face	Fem	1	1.18426189793809
272.007516194868	0.5	cue	Exp	Val	CueName2	Fem	1	0.990628734581605
272.524541262797	3.23596380705567	Jitter1	Exp	Val	CueName2	Fem	1	0.990628734581605
275.743480001924	0.5	target	Exp	Val	Word	Fem	1	0.990628734581605
276.260339712996	2.51841708235952	Jitter2	Exp	Val	Word	Fem	1	0.990628734581605
278.795579365172	0.5	cue	Exp	Val	CueName2	Mas	1	0.991036861486919
279.312647408807	2.53542735070732	Jitter1	Exp	Val	CueName2	Mas	1	0.991036861486919
281.831006715879	0.5	target	Exp	Val	Word	Mas	1	0.991036861486919
282.347975716164	3.91834388135521	Jitter2	Exp	Val	Word	Mas	1	0.991036861486919
286.284268358525	0.5	cue	Exp	Inval	CueFace2	Mas	1	1.21341052642947
286.801218859334	3.93635454445302	Jitter1	Exp	Inval	CueFace2	Mas	1	1.21341052642947
290.720622902978	0.5	target	Exp	Inval	Word	Mas	1	1.21341052642947
291.237509936353	4.61827156263371	Jitter2	Exp	Inval	Word	Mas	1	1.21341052642947
295.874243122393	0.5	cue	Exp	Val	CueFace2	Fem	1	0.920276649705102
296.391342472833	2.53546008054946	Jitter1	Exp	Val	CueFace2	Fem	1	0.920276649705102
298.909703202942	0.5	target	Exp	Val	Face	Fem	1	0.920276649705102
299.426567752339	5.31841867616049	Jitter2	Exp	Val	Face	Fem	1	0.920276649705102
304.76380409567	0.5	cue	Exp	Val	CueName2	Mas	1	0.757634093453362
305.2807981414	3.93645301858805	Jitter1	Exp	Val	CueName2	Mas	1	0.757634093453362
309.200257114258	0.5	target	Exp	Val	Word	Mas	1	0.757634093453362
309.717133047948	3.21834362520849	Jitter2	Exp	Val	Word	Mas	1	0.757634093453362
312.95290090286	0.5	cue	Exp	Val	CueName2	Mas	1	0.791622754128184
313.469896087019	5.33737195872163	Jitter1	Exp	Val	CueName2	Mas	1	0.791622754128184
318.790272861581	0.5	target	Exp	Val	Word	Mas	1	0.791622754128184
319.30717127925	4.61842951969948	Jitter2	Exp	Val	Word	Mas	1	0.791622754128184
323.943990701309	0.5	cue	Exp	Val	CueFace2	Mas	1	0.805573920633833
324.460953440234	4.62021244229254	Jitter1	Exp	Val	CueFace2	Mas	1	0.805573920633833
329.064203143602	0.5	target	Exp	Val	Face	Mas	1	0.805573920633833
329.581040655303	4.61841756619151	Jitter2	Exp	Val	Face	Mas	1	0.805573920633833
334.21783901642	0.5	cue	Exp	Val	CueName2	Mas	1	0.771013483841216
334.734823954715	4.63689185462363	Jitter1	Exp	Val	CueName2	Mas	1	0.771013483841216
339.354730871044	0.5	target	Exp	Val	Word	Mas	1	0.771013483841216
339.87161249688	5.31841839155277	Jitter2	Exp	Val	Word	Mas	1	0.771013483841216
345.208844001887	0.5	cue	Exp	Val	CueName2	Mas	1	0.809413273459541
345.725922575992	2.53545353458094	Jitter1	Exp	Val	CueName2	Mas	1	0.809413273459541
348.244297536467	0.5	target	Exp	Val	Word	Mas	1	0.809413273459541
348.761177170053	6.01848325356241	Jitter2	Exp	Val	Word	Mas	1	0.809413273459541
354.798889632979	0.5	cue	Exp	Val	CueName2	Fem	1	1.42879423544946
355.315925515986	6.03791923014842	Jitter1	Exp	Val	CueName2	Fem	1	1.42879423544946
361.336808863127	0.5	target	Exp	Val	Word	Fem	1	1.42879423544946
361.853690488964	5.3184431523905	Jitter2	Exp	Val	Word	Fem	1	1.42879423544946
367.190935939729	0.5	cue	Exp	Val	CueFace2	Fem	1	1.39037680017691
367.707934539177	4.62025371035452	Jitter1	Exp	Val	CueFace2	Fem	1	1.39037680017691
372.311189650084	0.5	target	Exp	Val	Face	Fem	1	1.39037680017691
372.8280510688	2.51838833701959	Jitter2	Exp	Val	Face	Fem	1	1.39037680017691
375.363307512808	0.5	cue	Exp	Val	CueFace2	Mas	1	1.55290978260837
375.880335142203	6.02126315561782	Jitter1	Exp	Val	CueFace2	Mas	1	1.55290978260837
381.884570668426	0.5	target	Exp	Val	Face	Mas	1	1.55290978260837
382.401410172378	6.0184038481184	Jitter2	Exp	Val	Face	Mas	1	1.55290978260837
388.439070267556	0.5	cue	Exp	Val	CueName2	Fem	1	1.51492068136122
388.956197794123	2.53556566986754	Jitter1	Exp	Val	CueName2	Fem	1	1.51492068136122
391.474635937424	0.5	target	Exp	Val	Word	Fem	1	1.51492068136122
391.991476864413	4.61852970147856	Jitter2	Exp	Val	Word	Fem	1	1.51492068136122
396.628241641865	0.5	cue	Exp	Val	CueName2	Fem	1	0.777198285639315
397.145214911261	3.23592680810316	Jitter1	Exp	Val	CueName2	Fem	1	0.777198285639315
400.364168449968	0.5	target	Exp	Val	Word	Fem	1	0.777198285639315
400.881034137795	6.01846703094498	Jitter2	Exp	Val	Word	Fem	1	0.777198285639315
406.91877335381	0.5	cue	Exp	Val	CueName2	Fem	1	0.929041986126322
407.435819198073	5.33742404186251	Jitter1	Exp	Val	CueName2	Fem	1	0.929041986126322
412.756197395672	0.5	target	Exp	Val	Word	Fem	1	0.929041986126322
413.273077883079	3.91839994899829	Jitter2	Exp	Val	Word	Fem	1	0.929041986126322
417.209294535283	0.5	cue	Exp	Inval	CueName2	Fem	1	0.75148315992692
417.72635062541	3.93646383366604	Jitter1	Exp	Inval	CueName2	Fem	1	0.75148315992692
421.645758368949	0.5	target	Exp	Inval	Face	Fem	1	0.75148315992692
422.162643694681	2.51844326623313	Jitter2	Exp	Inval	Face	Fem	1	0.75148315992692
424.697900992511	0.5	cue	Exp	Val	CueFace2	Fem	1	0.758720724223167
425.214927198869	3.93652843952941	Jitter1	Exp	Val	CueFace2	Fem	1	0.758720724223167
429.134429432041	0.5	target	Exp	Val	Face	Fem	1	0.758720724223167
429.65122880636	6.01842747052706	Jitter2	Exp	Val	Face	Fem	1	0.758720724223167
435.688912239339	0.5	cue	Exp	Val	CueFace2	Fem	1	0.896681279355562
436.205970321717	2.53548967971165	Jitter1	Exp	Val	CueFace2	Fem	1	0.896681279355562
438.72440191905	0.5	target	Exp	Val	Face	Fem	1	0.896681279355562
439.241285821745	4.61840646650626	Jitter2	Exp	Val	Face	Fem	1	0.896681279355562
443.877988270194	0.5	cue	Exp	Val	CueFace2	Fem	1	1.4230776127024
444.395007930583	3.23597889124358	Jitter1	Exp	Val	CueFace2	Fem	1	1.4230776127024
447.613967161437	0.5	target	Exp	Val	Face	Fem	1	1.4230776127024
448.130851633347	4.61836633687335	Jitter2	Exp	Val	Face	Fem	1	1.4230776127024
452.767609011009	0.5	cue	Exp	Inval	CueName2	Mas	1	0.90909357405053
453.284636071189	4.6203177470029	Jitter1	Exp	Inval	CueName2	Mas	1	0.90909357405053
457.887926758012	0.5	target	Exp	Inval	Face	Mas	1	0.90909357405053
458.404703363745	3.2183922930617	Jitter2	Exp	Inval	Face	Mas	1	0.90909357405053
461.6404262507	0.5	cue	Exp	Inval	CueFace2	Mas	1	1.58306364417513
462.157511086167	5.33747726343199	Jitter1	Exp	Inval	CueFace2	Mas	1	1.58306364417513
467.477903514132	0.5	target	Exp	Inval	Word	Mas	1	1.58306364417513
467.994760663738	2.51836101471645	Jitter2	Exp	Inval	Word	Mas	1	1.58306364417513
