onset	duration	section	btype	validity	stim	gender	accuracy	reaction_time
10.0927291190419	0.5	cue	Att	Val	CueFace1	Mas	1	0.599440692707503
10.609812012186	2.53553701696728	Jitter1	Att	Val	CueFace1	Mas	1	0.599440692707503
13.1282661360092	0.5	target	Att	Val	Face	Mas	1	0.599440692707503
13.6451671660543	3.91908856704504	Jitter2	Att	Val	Face	Mas	1	0.599440692707503
17.5813631023393	0.5	cue	Att	Val	CueFace1	Mas	1	0.498171407820337
18.0984024507979	3.23600877951867	Jitter1	Att	Val	CueFace1	Mas	1	0.498171407820337
21.317371881858	0.5	target	Att	Val	Face	Mas	1	0.498171407820337
21.8341997682164	4.61836014699293	Jitter2	Att	Val	Face	Mas	1	0.498171407820337
26.4708253453973	0.5	cue	Att	Inval	CueName1	Mas	1	0.688394515987966
26.9879125076277	4.62030343530569	Jitter1	Att	Inval	CueName1	Mas	1	0.688394515987966
31.591128780703	0.5	target	Att	Inval	Face	Mas	1	0.688394515987966
32.1080207033629	3.21838769683382	Jitter2	Att	Inval	Face	Mas	1	0.688394515987966
35.3437628072606	0.5	cue	Att	Val	CueName1	Mas	1	0.604132703709183
35.8607150663465	2.53547781896305	Jitter1	Att	Val	CueName1	Mas	1	0.604132703709183
38.3792406262237	0.5	target	Att	Val	Word	Mas	1	0.604132703709183
38.8961319796726	3.91832923880429	Jitter2	Att	Val	Word	Mas	1	0.604132703709183
42.8322795329732	0.5	cue	Att	Inval	CueName1	Mas	1	0.667545434467684
43.3493129047092	2.53544452008646	Jitter1	Att	Inval	CueName1	Mas	1	0.667545434467684
45.8677240530596	0.5	target	Att	Inval	Face	Mas	1	0.667545434467684
46.3846296367974	5.31827892050205	Jitter2	Att	Inval	Face	Mas	1	0.667545434467684
51.7218055277281	0.5	cue	Att	Inval	CueFace1	Fem	1	0.561930788428072
52.2388201154808	2.53545448128716	Jitter1	Att	Inval	CueFace1	Fem	1	0.561930788428072
54.7572600090152	0.5	target	Att	Inval	Word	Fem	1	0.561930788428072
55.2741550623396	5.31832417282203	Jitter2	Att	Inval	Word	Fem	1	0.561930788428072
60.6113488834344	0.5	cue	Att	Inval	CueName1	Mas	1	0.49182099889731
61.1283962008547	3.23591941330233	Jitter1	Att	Inval	CueName1	Mas	1	0.49182099889731
64.3472682967367	0.5	target	Att	Inval	Face	Mas	1	0.49182099889731
64.8641750188981	3.91826776395465	Jitter2	Att	Inval	Face	Mas	1	0.49182099889731
68.800313180207	0.5	cue	Att	Val	CueName1	Fem	1	0.652745364341172
69.3173955041384	6.03794193586691	Jitter1	Att	Val	CueName1	Fem	1	0.652745364341172
75.3382551160739	0.5	target	Att	Val	Word	Fem	1	0.652745364341172
75.8551533000609	4.61835957778203	Jitter2	Att	Val	Word	Fem	1	0.652745364341172
80.4918417751196	0.5	cue	Att	Inval	CueName1	Fem	1	0.705795029189176
81.0088700239521	6.02123102248697	Jitter1	Att	Inval	CueName1	Fem	1	0.705795029189176
87.0130727976066	0.5	target	Att	Inval	Face	Fem	1	0.705795029189176
87.5299504899776	5.31845622990659	Jitter2	Att	Inval	Face	Fem	1	0.705795029189176
92.8671235348484	0.5	cue	Att	Inval	CueFace1	Mas	1	0.49419973406475
93.3841503606527	5.33740414477143	Jitter1	Att	Inval	CueFace1	Mas	1	0.49419973406475
98.7045276796198	0.5	target	Att	Inval	Word	Mas	1	0.49419973406475
99.2214244405786	3.91846556497694	Jitter2	Att	Inval	Word	Mas	1	0.49419973406475
103.157628061219	0.5	cue	Att	Val	CueName1	Fem	1	0.595541593427697
103.674657163869	5.3374263440237	Jitter1	Att	Val	CueName1	Fem	1	0.595541593427697
108.995054405243	0.5	target	Att	Val	Word	Fem	1	0.595541593427697
109.511924413257	6.01841655586031	Jitter2	Att	Val	Word	Fem	1	0.595541593427697
115.549587720057	0.5	cue	Att	Inval	CueName1	Fem	1	0.581424007978057
116.066616538101	2.53544679693186	Jitter1	Att	Inval	CueName1	Fem	1	0.581424007978057
118.585034516989	0.5	target	Att	Inval	Face	Fem	1	0.581424007978057
119.101936685458	4.61829155699888	Jitter2	Att	Inval	Face	Fem	1	0.581424007978057
123.738625445123	0.5	cue	Att	Inval	CueFace1	Fem	1	0.582290063388427
124.255689554284	5.33742634402188	Jitter1	Att	Inval	CueFace1	Fem	1	0.582290063388427
129.576051789145	0.5	target	Att	Inval	Word	Fem	1	0.582290063388427
130.092926920064	2.51835536561521	Jitter2	Att	Inval	Word	Fem	1	0.582290063388427
132.62814717079	0.5	cue	Att	Val	CueFace1	Fem	1	0.630644017357554
133.145174565805	2.53549034161915	Jitter1	Att	Val	CueFace1	Fem	1	0.630644017357554
135.663637512409	0.5	target	Att	Val	Face	Fem	1	0.630644017357554
136.180494713162	3.21836322073614	Jitter2	Att	Val	Face	Fem	1	0.630644017357554
139.416213763991	0.5	cue	Att	Val	CueFace1	Mas	1	0.618224390032992
139.933238597554	3.91972893006459	Jitter1	Att	Val	CueFace1	Mas	1	0.618224390032992
143.835942694055	0.5	target	Att	Val	Face	Mas	1	0.618224390032992
144.352876453766	2.51831068250794	Jitter2	Att	Val	Face	Mas	1	0.618224390032992
146.888079912751	0.5	cue	Att	Inval	CueFace1	Mas	1	0.556061932496959
147.405108730794	6.0378813148327	Jitter1	Att	Inval	CueFace1	Mas	1	0.556061932496959
153.425961227584	0.5	target	Att	Inval	Word	Mas	1	0.556061932496959
153.942866811321	6.0183869568591	Jitter2	Att	Inval	Word	Mas	1	0.556061932496959
159.980495965428	0.5	cue	Att	Val	CueName1	Mas	0	0.457484449139884
160.497558082348	3.23596409640959	Jitter1	Att	Val	CueName1	Mas	0	0.457484449139884
163.716460061838	0.5	target	Att	Val	Word	Mas	0	0.457484449139884
164.233431104907	6.01829986748817	Jitter2	Att	Val	Word	Mas	0	0.457484449139884
170.271178655021	0.5	cue	Att	Val	CueFace1	Mas	1	0.557604495859778
170.788101315105	6.02105883598597	Jitter1	Att	Val	CueFace1	Mas	1	0.557604495859778
176.792237491007	0.5	target	Att	Val	Face	Mas	1	0.557604495859778
177.309137382628	5.31837767871002	Jitter2	Att	Val	Face	Mas	1	0.557604495859778
182.646314411981	0.5	cue	Att	Val	CueName1	Mas	1	0.561956118341186
183.16334152239	5.33740186792602	Jitter1	Att	Val	CueName1	Mas	1	0.561956118341186
188.483716279907	0.5	target	Att	Val	Word	Mas	1	0.561956118341186
189.000612187047	5.31827208996401	Jitter2	Att	Val	Word	Mas	1	0.561956118341186
194.337788362584	0.5	cue	Att	Val	CueName1	Fem	1	0.663290862561553
194.854818603655	3.93642646697117	Jitter1	Att	Val	CueName1	Fem	1	0.663290862561553
198.774214829555	0.5	target	Att	Val	Word	Fem	1	0.663290862561553
199.291111590514	3.21827470833523	Jitter2	Att	Val	Word	Fem	1	0.663290862561553
202.526823526197	0.5	cue	Att	Val	CueFace1	Fem	0	0.481932655440687
203.043848928972	5.32072083815183	Jitter1	Att	Val	CueFace1	Fem	0	0.481932655440687
208.347544364349	0.5	target	Att	Val	Face	Fem	0	0.481932655440687
208.864444825183	3.91837676797149	Jitter2	Att	Val	Face	Fem	0	0.481932655440687
212.800602624293	0.5	cue	Att	Val	CueName1	Fem	1	0.617209201192964
213.317687794282	2.53549745676173	Jitter1	Att	Val	CueName1	Fem	1	0.617209201192964
215.836100081055	0.5	target	Att	Val	Word	Fem	1	0.617209201192964
216.352993426744	2.51834625823176	Jitter2	Att	Val	Word	Fem	1	0.617209201192964
218.888322396881	0.5	cue	Att	Val	CueName1	Mas	1	0.572149274597905
219.405245626178	4.63680857870168	Jitter1	Att	Val	CueName1	Mas	1	0.572149274597905
224.025130975582	0.5	target	Att	Val	Word	Mas	1	0.572149274597905
224.542037128533	4.61842048341896	Jitter2	Att	Val	Word	Mas	1	0.572149274597905
229.178663274924	0.5	cue	Att	Inval	CueFace1	Mas	0	0.565993820639051
229.695748160308	3.93649591078429	Jitter1	Att	Inval	CueFace1	Mas	0	0.565993820639051
233.615159185709	0.5	target	Att	Inval	Word	Mas	0	0.565993820639051
234.132039724138	4.61840852997557	Jitter2	Att	Inval	Word	Mas	0	0.565993820639051
238.768757228987	0.5	cue	Att	Val	CueFace1	Fem	0	0.404049428056169
239.285776370434	4.62023683755069	Jitter1	Att	Val	CueFace1	Fem	0	0.404049428056169
243.888994066538	0.5	target	Att	Val	Face	Fem	0	0.404049428056169
244.405983039771	4.61838576151422	Jitter2	Att	Val	Face	Fem	0	0.404049428056169
249.04254998816	0.5	cue	Att	Val	CueName1	Fem	1	0.545464066812201
249.559607551388	4.63691132138956	Jitter1	Att	Val	CueName1	Fem	1	0.545464066812201
254.17946130955	0.5	target	Att	Val	Word	Fem	1	0.545464066812201
254.696359493539	3.91843511215666	Jitter2	Att	Val	Word	Fem	1	0.545464066812201
258.632559414304	0.5	cue	Att	Inval	CueFace1	Mas	1	0.620302296883892
259.14954212621	3.23596352719869	Jitter1	Att	Inval	CueFace1	Mas	1	0.620302296883892
262.368522941502	0.5	target	Att	Inval	Word	Mas	1	0.620302296883892
262.88539551097	3.21843636442281	Jitter2	Att	Inval	Word	Mas	1	0.620302296883892
266.121109154288	0.5	cue	Att	Inval	CueFace1	Mas	1	1.09867595695869
266.638159886978	4.63691189060228	Jitter1	Att	Inval	CueFace1	Mas	1	1.09867595695869
271.25802104489	0.5	target	Att	Inval	Word	Mas	1	1.09867595695869
271.774920082695	5.31853165044049	Jitter2	Att	Inval	Word	Mas	1	1.09867595695869
277.11209227375	0.5	cue	Att	Val	CueFace1	Mas	1	0.852237513774526
277.629093200427	4.62025875219661	Jitter1	Att	Val	CueFace1	Mas	1	0.852237513774526
282.232351025947	0.5	target	Att	Val	Face	Mas	1	0.852237513774526
282.749237541097	6.01840602544689	Jitter2	Att	Val	Face	Mas	1	0.852237513774526
288.786922762543	0.5	cue	Att	Inval	CueName1	Fem	1	0.769303102886624
289.303919135527	4.62023484530982	Jitter1	Att	Inval	CueName1	Fem	1	0.769303102886624
293.907157607853	0.5	target	Att	Inval	Face	Fem	1	0.769303102886624
294.424024485204	6.01844103195799	Jitter2	Att	Inval	Face	Fem	1	0.769303102886624
300.461691491881	0.5	cue	Att	Val	CueName1	Mas	1	0.452754016358085
300.978724294406	6.03789383748699	Jitter1	Att	Val	CueName1	Mas	1	0.452754016358085
306.999585329368	0.5	target	Att	Val	Word	Mas	1	0.452754016358085
307.516509412482	3.21835382874451	Jitter2	Att	Val	Word	Mas	1	0.452754016358085
310.752132835767	0.5	cue	Att	Val	CueFace1	Fem	1	0.528292092058109
311.26919267584	3.91980178914491	Jitter1	Att	Val	CueFace1	Fem	1	0.528292092058109
315.171934624912	0.5	target	Att	Val	Face	Fem	1	0.528292092058109
315.688833378112	5.31829201236724	Jitter2	Att	Val	Face	Fem	1	0.528292092058109
321.026007561406	0.5	cue	Att	Inval	CueName1	Fem	1	0.397307401570288
321.543039794718	5.32072909172166	Jitter1	Att	Inval	CueName1	Fem	1	0.397307401570288
326.846736653128	0.5	target	Att	Inval	Face	Fem	1	0.397307401570288
327.363905781824	2.51821562417354	Jitter2	Att	Inval	Face	Fem	1	0.397307401570288
329.898856226264	0.5	cue	Att	Val	CueFace1	Fem	1	0.521220776678092
330.415879921404	3.23593193595661	Jitter1	Att	Val	CueFace1	Fem	1	0.521220776678092
333.634788162221	0.5	target	Att	Val	Face	Fem	1	0.521220776678092
334.151690330689	2.51851986776092	Jitter2	Att	Val	Face	Fem	1	0.521220776678092
336.686916273531	0.5	cue	Att	Inval	CueName1	Mas	1	0.688276404585849
337.203943953151	5.32072966093256	Jitter1	Att	Inval	CueName1	Mas	1	0.688276404585849
342.507645934464	0.5	target	Att	Inval	Face	Mas	1	0.688276404585849
343.0245367187	4.61854827141906	Jitter2	Att	Inval	Face	Mas	1	0.688276404585849
347.661228609029	0.5	cue	Att	Inval	CueFace1	Fem	1	0.588626811231734
348.178263119187	6.0379026602659	Jitter1	Att	Inval	CueFace1	Fem	1	0.588626811231734
354.199131269295	0.5	target	Att	Inval	Word	Fem	1	0.588626811231734
354.716012661542	6.0183809801365	Jitter2	Att	Inval	Word	Fem	1	0.588626811231734
360.753681660459	0.5	cue	Att	Inval	CueFace1	Fem	1	0.722024104970842
361.270714462982	3.23593193595661	Jitter1	Att	Inval	CueFace1	Fem	1	0.722024104970842
364.489613596415	0.5	target	Att	Inval	Word	Fem	1	0.722024104970842
365.006510072768	3.21836720521605	Jitter2	Att	Inval	Word	Fem	1	0.722024104970842
368.242222862269	0.5	cue	Att	Val	CueName1	Fem	1	0.577515801312984
368.759255095581	3.23588611442574	Jitter1	Att	Val	CueName1	Fem	1	0.577515801312984
371.978108976695	0.5	target	Att	Val	Word	Fem	1	0.577515801312984
372.495058674329	5.31839133978792	Jitter2	Att	Val	Word	Fem	1	0.577515801312984
377.832234280653	0.5	cue	Att	Val	CueFace1	Mas	1	0.542415938834893
378.349256837369	5.32075556005839	Jitter1	Att	Val	CueFace1	Mas	1	0.542415938834893
383.652989840712	0.5	target	Att	Val	Face	Mas	1	0.542415938834893
384.16985614885	3.21847990910828	Jitter2	Att	Val	Face	Mas	1	0.542415938834893
387.405532508812	0.5	cue	Att	Inval	CueFace1	Mas	0	0.650352398884934
387.922629916849	2.53549119543459	Jitter1	Att	Inval	CueFace1	Mas	0	0.650352398884934
390.441023704247	0.5	target	Att	Inval	Word	Mas	0	0.650352398884934
390.957949210389	2.51833686624013	Jitter2	Att	Inval	Word	Mas	0	0.650352398884934
393.493142138961	0.5	cue	Att	Val	CueName1	Mas	1	0.69771734774622
394.010172949244	3.9364287438184	Jitter1	Att	Val	CueName1	Mas	1	0.69771734774622
397.929570882779	0.5	target	Att	Val	Word	Mas	1	0.69771734774622
398.446464228467	2.51848799191248	Jitter2	Att	Val	Word	Mas	1	0.69771734774622
400.981688463675	0.5	cue	Att	Val	CueFace1	Fem	1	0.660235050227129
401.498719273959	6.02121821522633	Jitter1	Att	Val	CueFace1	Fem	1	0.660235050227129
407.502906678901	0.5	target	Att	Val	Face	Fem	1	0.660235050227129
408.019796040109	6.01846323120844	Jitter2	Att	Val	Face	Fem	1	0.660235050227129
414.057459916121	0.5	cue	Att	Inval	CueName1	Fem	1	0.577616551761821
414.57449243404	3.23593677425561	Jitter1	Att	Inval	CueName1	Fem	1	0.577616551761821
417.793396690377	0.5	target	Att	Inval	Face	Fem	1	0.577616551761821
418.310296012787	3.2183942427655	Jitter2	Att	Inval	Face	Fem	1	0.577616551761821
421.546008517682	0.5	cue	Att	Inval	CueName1	Mas	1	0.756522880028569
422.063038189543	3.93642049025038	Jitter1	Att	Inval	CueName1	Mas	1	0.756522880028569
425.982429007932	0.5	target	Att	Inval	Face	Mas	1	0.756522880028569
426.499332030218	6.01836134233781	Jitter2	Att	Inval	Face	Mas	1	0.756522880028569
432.536995621624	0.5	cue	Att	Inval	CueFace1	Fem	1	0.461410870575492
433.054061438421	3.93642504394302	Jitter1	Att	Inval	CueFace1	Fem	1	0.461410870575492
436.973420665567	0.5	target	Att	Inval	Word	Fem	1	0.461410870575492
437.490471398256	4.6183205867892	Jitter2	Att	Inval	Word	Fem	1	0.461410870575492
442.127031800712	0.5	cue	Att	Inval	CueName1	Mas	1	0.498432106720429
442.644032727389	6.02119345452229	Jitter1	Att	Inval	CueName1	Mas	1	0.498432106720429
448.648225255234	0.5	target	Att	Inval	Face	Mas	1	0.498432106720429
449.165116324077	2.51835565022157	Jitter2	Att	Inval	Face	Mas	1	0.498432106720429
451.700330028871	0.5	cue	Att	Inval	CueName1	Fem	1	0.545792217282724
452.217366531269	3.93643955883817	Jitter1	Att	Inval	CueName1	Fem	1	0.545792217282724
456.136769587709	0.5	target	Att	Inval	Face	Fem	1	0.545792217282724
456.653663787214	3.91843340452397	Jitter2	Att	Inval	Face	Fem	1	0.545792217282724
460.589862284951	0.5	cue	Att	Inval	CueFace1	Fem	1	0.61177294605659
461.106828489723	4.63685354641711	Jitter1	Att	Inval	CueFace1	Fem	1	0.61177294605659
465.726715831368	0.5	target	Att	Inval	Word	Fem	1	0.61177294605659
466.243675490205	3.91840522854909	Jitter2	Att	Inval	Word	Fem	1	0.61177294605659
