onset	duration	section	btype	validity	stim	gender	accuracy	reaction_time
10.0473017663771	0.5	cue	Exp	Inval	CueFace2	Fem	1	0.535415205689787
10.5643300152096	4.63691843653578	Jitter1	Exp	Inval	CueFace2	Fem	1	0.535415205689787
15.1842202029129	0.5	target	Exp	Inval	Word	Fem	1	0.535415205689787
15.7011132639964	2.51892201573719	Jitter2	Exp	Inval	Word	Fem	1	0.535415205689787
18.2363056233553	0.5	cue	Exp	Val	CueName1	Mas	1	0.537326902760469
18.7533318799469	6.03787562271827	Jitter1	Exp	Val	CueName1	Mas	1	0.537326902760469
24.7741812460736	0.5	target	Exp	Val	Word	Mas	1	0.537326902760469
25.2911252515914	6.0183536579807	Jitter2	Exp	Val	Word	Mas	1	0.537326902760469
31.3287831508824	0.5	cue	Exp	Val	CueFace2	Mas	1	0.545854545951443
31.8458122535321	5.32073478383609	Jitter1	Exp	Val	CueFace2	Mas	1	0.545854545951443
37.1495179347185	0.5	target	Exp	Val	Face	Mas	1	0.545854545951443
37.6664186801572	3.21848560122453	Jitter2	Exp	Val	Face	Mas	1	0.545854545951443
40.9021195162168	0.5	cue	Exp	Inval	CueName1	Mas	1	0.479930453730049
41.4191511803165	6.0212443989567	Jitter1	Exp	Inval	CueName1	Mas	1	0.479930453730049
47.4233639151735	0.5	target	Exp	Inval	Face	Mas	1	0.479930453730049
47.940233069372	6.01840460241692	Jitter2	Exp	Inval	Face	Mas	1	0.479930453730049
53.9778909686611	0.5	cue	Exp	Val	CueFace2	Fem	1	0.440848102476593
54.4949306017261	3.93639032203828	Jitter1	Exp	Val	CueFace2	Fem	1	0.440848102476593
58.4142812906994	0.5	target	Exp	Val	Face	Fem	1	0.440848102476593
58.9313499535529	6.01821420114538	Jitter2	Exp	Val	Face	Fem	1	0.440848102476593
64.9688797802391	0.5	cue	Exp	Inval	CueFace2	Mas	1	0.464742181309703
65.4859188440914	5.33739873726154	Jitter1	Exp	Inval	CueFace2	Mas	1	0.464742181309703
70.8062785175007	0.5	target	Exp	Inval	Word	Mas	1	0.464742181309703
71.3233073355441	5.31814458657027	Jitter2	Exp	Inval	Word	Mas	1	0.464742181309703
76.6603568615046	0.5	cue	Exp	Inval	CueName1	Fem	1	0.599082089414878
77.1773873871825	2.53544821996184	Jitter1	Exp	Inval	CueName1	Fem	1	0.599082089414878
79.6958050814665	0.5	target	Exp	Inval	Face	Fem	1	0.599082089414878
80.212704973088	3.91835456871922	Jitter2	Exp	Inval	Face	Fem	1	0.599082089414878
84.1488761486689	0.5	cue	Exp	Val	CueFace2	Fem	1	0.757196541926533
84.66592944281	5.3207572676929	Jitter1	Exp	Val	CueFace2	Fem	1	0.757196541926533
89.9696334163618	0.5	target	Exp	Val	Face	Fem	1	0.757196541926533
90.4865273312626	2.51835451179977	Jitter2	Exp	Val	Face	Fem	1	0.757196541926533
93.0217524202872	0.5	cue	Exp	Val	CueFace2	Mas	1	0.597151039151868
93.5387798153024	3.91977304396278	Jitter1	Exp	Val	CueFace2	Mas	1	0.597151039151868
97.4415254642499	0.5	target	Exp	Val	Face	Mas	1	0.597151039151868
97.9583946184466	4.61838775375509	Jitter2	Exp	Val	Face	Mas	1	0.597151039151868
102.595094193131	0.5	cue	Exp	Val	CueFace2	Fem	1	0.516919529422012
103.112137810676	4.62025533692758	Jitter1	Exp	Val	CueFace2	Fem	1	0.516919529422012
107.715349530059	0.5	target	Exp	Val	Face	Fem	1	0.516919529422012
108.232221245709	4.61846858179706	Jitter2	Exp	Val	Face	Fem	1	0.516919529422012
112.868913136037	0.5	cue	Exp	Val	CueFace2	Mas	1	0.550155793207523
113.385936831177	2.53543825875931	Jitter1	Exp	Val	CueFace2	Mas	1	0.550155793207523
115.904351394796	0.5	target	Exp	Val	Face	Mas	1	0.550155793207523
116.421252994052	4.61843528292229	Jitter2	Exp	Val	Face	Mas	1	0.550155793207523
121.0579408999	0.5	cue	Exp	Val	CueFace2	Fem	1	0.46848901649355
121.574992201802	3.23594218176549	Jitter1	Exp	Val	CueFace2	Fem	1	0.46848901649355
124.793883081666	0.5	target	Exp	Val	Face	Fem	1	0.46848901649355
125.310777281173	5.31853193504685	Jitter2	Exp	Val	Face	Fem	1	0.46848901649355
130.647956302766	0.5	cue	Exp	Val	CueName1	Fem	1	0.516954251328571
131.16499252056	6.03787846877458	Jitter1	Exp	Val	CueName1	Fem	1	0.516954251328571
137.185834771541	0.5	target	Exp	Val	Word	Fem	1	0.516954251328571
137.702740924491	5.31834637207248	Jitter2	Exp	Val	Word	Fem	1	0.516954251328571
143.039929338076	0.5	cue	Exp	Val	CueName1	Fem	1	0.522836768335765
143.556945348859	2.53542573610321	Jitter1	Exp	Val	CueName1	Fem	1	0.522836768335765
146.075355074179	0.5	target	Exp	Val	Word	Fem	1	0.522836768335765
146.592281434139	3.21824055564321	Jitter2	Exp	Val	Word	Fem	1	0.522836768335765
149.827976293476	0.5	cue	Exp	Val	CueFace2	Fem	1	0.472894714072027
150.34500653455	6.02121849983268	Jitter1	Exp	Val	CueFace2	Fem	1	0.472894714072027
156.349194793309	0.5	target	Exp	Val	Face	Fem	1	0.472894714072027
156.866086431362	3.21840818844976	Jitter2	Exp	Val	Face	Fem	1	0.472894714072027
160.101829104471	0.5	cue	Exp	Val	CueName1	Fem	1	0.567183188222771
160.618824339032	4.63688200699471	Jitter1	Exp	Val	CueName1	Fem	1	0.567183188222771
165.238711111466	0.5	target	Exp	Val	Word	Fem	1	0.567183188222771
165.755607872425	6.0183673190586	Jitter2	Exp	Val	Word	Fem	1	0.567183188222771
171.793271179224	0.5	cue	Exp	Val	CueName1	Mas	1	0.476605119716623
172.31024848362	3.23594588164087	Jitter1	Exp	Val	CueName1	Mas	1	0.476605119716623
175.529217060865	0.5	target	Exp	Val	Word	Mas	1	0.476605119716623
176.046107560496	3.91836396071085	Jitter2	Exp	Val	Word	Mas	1	0.476605119716623
179.982307765868	0.5	cue	Exp	Val	CueFace2	Mas	0	0.606146289650496
180.499286493292	6.02123984526588	Jitter1	Exp	Val	CueFace2	Mas	0	0.606146289650496
186.503547611133	0.5	target	Exp	Val	Face	Mas	0	0.606146289650496
187.020425303504	3.91848890265101	Jitter2	Exp	Val	Face	Mas	0	0.606146289650496
190.956615832278	0.5	cue	Exp	Val	CueFace2	Fem	1	0.525525439203193
191.473640950448	2.53544679693368	Jitter1	Exp	Val	CueFace2	Fem	1	0.525525439203193
193.992062629211	0.5	target	Exp	Val	Face	Fem	1	0.525525439203193
194.508965082285	3.91846556497694	Jitter2	Exp	Val	Face	Fem	1	0.525525439203193
198.44513938853	0.5	cue	Exp	Val	CueName1	Fem	1	0.558488766040682
198.962185567527	6.03786281545763	Jitter1	Exp	Val	CueName1	Fem	1	0.558488766040682
204.983002203988	0.5	target	Exp	Val	Word	Fem	1	0.558488766040682
205.499951047805	5.31848099061062	Jitter2	Exp	Val	Word	Fem	1	0.558488766040682
210.837126938735	0.5	cue	Exp	Val	CueName1	Mas	1	0.652773255707871
211.354148357028	2.53545590431713	Jitter1	Exp	Val	CueName1	Mas	1	0.652773255707871
213.872582843052	0.5	target	Exp	Val	Word	Mas	1	0.652773255707871
214.389476473347	4.6184993192237	Jitter2	Exp	Val	Word	Mas	1	0.652773255707871
219.02619170135	0.5	cue	Exp	Val	CueFace2	Mas	1	0.519389907651203
219.543217388731	3.91971896886207	Jitter1	Exp	Val	CueFace2	Mas	1	0.519389907651203
223.445910670212	0.5	target	Exp	Val	Face	Mas	1	0.519389907651203
223.962810561834	2.51847233859553	Jitter2	Exp	Val	Face	Mas	1	0.519389907651203
226.498034512437	0.5	cue	Exp	Val	CueName1	Fem	1	0.43869306745728
227.015064468904	3.93642789000114	Jitter1	Exp	Val	CueName1	Fem	1	0.43869306745728
230.934462402438	0.5	target	Exp	Val	Word	Fem	1	0.43869306745728
231.451486382182	3.91830561652387	Jitter2	Exp	Val	Word	Fem	1	0.43869306745728
235.387559653373	0.5	cue	Exp	Val	CueName1	Fem	1	0.553548578793198
235.904587048388	3.23593677425561	Jitter1	Exp	Val	CueName1	Fem	1	0.553548578793198
239.123496427628	0.5	target	Exp	Val	Word	Fem	1	0.553548578793198
239.640424779829	4.61842617553521	Jitter2	Exp	Val	Word	Fem	1	0.553548578793198
244.27709020182	0.5	cue	Exp	Inval	CueName1	Fem	0	0.580123928744797
244.794164841394	3.91975112931505	Jitter1	Exp	Inval	CueName1	Fem	0	0.580123928744797
248.696841331135	0.5	target	Exp	Inval	Face	Fem	0	0.580123928744797
249.213726992468	4.61842902159333	Jitter2	Exp	Inval	Face	Fem	0	0.580123928744797
253.850366515333	0.5	cue	Exp	Val	CueFace2	Mas	1	0.658173365907714
254.3674457086	4.62031396571911	Jitter1	Exp	Val	CueFace2	Mas	1	0.658173365907714
258.970680481052	0.5	target	Exp	Val	Face	Mas	1	0.658173365907714
259.487548781432	6.01839435660986	Jitter2	Exp	Val	Face	Mas	1	0.658173365907714
265.525214649684	0.5	cue	Exp	Val	CueName1	Fem	1	0.450107182539796
266.04224261391	5.33739788344428	Jitter1	Exp	Val	CueName1	Fem	1	0.450107182539796
271.362612533128	0.5	target	Exp	Val	Word	Fem	1	0.450107182539796
271.879640497355	2.51841143295678	Jitter2	Exp	Val	Word	Fem	1	0.450107182539796
274.414739790622	0.5	cue	Exp	Val	CueName1	Fem	1	0.521456714875967
274.931764624183	3.93644809701073	Jitter1	Exp	Val	CueName1	Fem	1	0.521456714875967
278.851187887632	0.5	target	Exp	Val	Word	Fem	1	0.521456714875967
279.368058749465	2.51845554685315	Jitter2	Exp	Val	Word	Fem	1	0.521456714875967
281.90329465351	0.5	cue	Exp	Val	CueName1	Mas	1	0.535813938397041
282.420316071803	5.33740556779958	Jitter1	Exp	Val	CueName1	Mas	1	0.535813938397041
287.740700221309	0.5	target	Exp	Val	Word	Mas	1	0.535813938397041
288.257599828326	5.31834352601436	Jitter2	Exp	Val	Word	Mas	1	0.535813938397041
293.594756650667	0.5	cue	Exp	Val	CueFace2	Fem	1	0.520420465205461
294.111823036676	6.02123728381412	Jitter1	Exp	Val	CueFace2	Fem	1	0.520420465205461
300.115993934482	0.5	target	Exp	Val	Face	Fem	1	0.520420465205461
300.632867642371	3.21840989608609	Jitter2	Exp	Val	Face	Fem	1	0.520420465205461
303.868584131747	0.5	cue	Exp	Val	CueName1	Mas	1	0.555286381726546
304.385617503483	3.93643016684837	Jitter1	Exp	Val	CueName1	Mas	1	0.555286381726546
308.305014298596	0.5	target	Exp	Val	Word	Mas	1	0.555286381726546
308.821903944408	3.21844347956721	Jitter2	Exp	Val	Word	Mas	1	0.555286381726546
312.057615880092	0.5	cue	Exp	Inval	CueFace2	Fem	1	0.631153177111628
312.574640713656	2.53545191983721	Jitter1	Exp	Inval	CueFace2	Fem	1	0.631153177111628
315.093067799929	0.5	target	Exp	Inval	Word	Fem	1	0.631153177111628
315.609963707071	6.01840204096516	Jitter2	Exp	Inval	Word	Fem	1	0.631153177111628
321.647578346281	0.5	cue	Exp	Val	CueName1	Mas	0	0.539539712754049
322.164656970337	4.63696425806666	Jitter1	Exp	Val	CueName1	Mas	0	0.539539712754049
326.784542604348	0.5	target	Exp	Val	Word	Mas	0	0.539539712754049
327.301439649913	2.51844074735163	Jitter2	Exp	Val	Word	Mas	0	0.539539712754049
329.836637985993	0.5	cue	Exp	Val	CueFace2	Mas	1	0.575449847907294
330.353698110674	3.23596495022866	Jitter1	Exp	Val	CueFace2	Mas	1	0.575449847907294
333.572602936221	0.5	target	Exp	Val	Face	Mas	1	0.575449847907294
334.089499981785	5.31838280161537	Jitter2	Exp	Val	Face	Mas	1	0.575449847907294
339.426672457446	0.5	cue	Exp	Val	CueFace2	Mas	1	0.753301142522105
339.943700421672	3.23594275097639	Jitter1	Exp	Val	CueFace2	Mas	1	0.753301142522105
343.162615208423	0.5	target	Exp	Val	Face	Mas	1	0.753301142522105
343.679511115564	2.51848258440259	Jitter2	Exp	Val	Face	Mas	1	0.753301142522105
346.214735066165	0.5	cue	Exp	Val	CueName1	Mas	1	0.633632093515189
346.731764738026	2.53542459768141	Jitter1	Exp	Val	CueName1	Mas	1	0.633632093515189
349.250159663847	0.5	target	Exp	Val	Word	Mas	1	0.633632093515189
349.767083746961	6.01837358038574	Jitter2	Exp	Val	Word	Mas	1	0.633632093515189
355.804771245254	0.5	cue	Exp	Inval	CueFace2	Fem	1	0.530508032712532
356.32177217193	3.93639886021083	Jitter1	Exp	Inval	CueFace2	Fem	1	0.530508032712532
360.241170105464	0.5	target	Exp	Inval	Word	Fem	1	0.530508032712532
360.758070850903	3.21829320771212	Jitter2	Exp	Inval	Word	Fem	1	0.530508032712532
363.99378050974	0.5	cue	Exp	Val	CueName1	Mas	1	0.585883780657241
364.510807050938	3.23590632143714	Jitter1	Exp	Val	CueName1	Mas	1	0.585883780657241
367.729686831177	0.5	target	Exp	Val	Word	Mas	1	0.585883780657241
368.246618883253	3.21852402300465	Jitter2	Exp	Val	Word	Mas	1	0.585883780657241
371.482297520059	0.5	cue	Exp	Inval	CueName1	Fem	1	0.585232318011549
371.999371590424	3.23596694246953	Jitter1	Exp	Inval	CueName1	Fem	1	0.585232318011549
375.218264462528	0.5	target	Exp	Inval	Face	Fem	1	0.585232318011549
375.735169192449	5.31833299560094	Jitter2	Exp	Inval	Face	Fem	1	0.585232318011549
381.072346221801	0.5	cue	Exp	Inval	CueName1	Mas	1	0.490824024827816
381.58940919254	4.62023797597431	Jitter1	Exp	Inval	CueName1	Mas	1	0.490824024827816
386.192584197775	0.5	target	Exp	Inval	Face	Mas	1	0.490824024827816
386.709476120437	3.21835126729275	Jitter2	Exp	Inval	Face	Mas	1	0.490824024827816
389.945186633091	0.5	cue	Exp	Val	CueName1	Fem	1	0.628680806641569
390.462218866403	5.33741296755034	Jitter1	Exp	Val	CueName1	Fem	1	0.628680806641569
395.782599600641	0.5	target	Exp	Val	Word	Fem	1	0.628680806641569
396.299532506535	4.61844410569938	Jitter2	Exp	Val	Word	Fem	1	0.628680806641569
400.936124784837	0.5	cue	Exp	Val	CueFace2	Mas	1	0.578774612709822
401.453198001385	4.62029005883414	Jitter1	Exp	Val	CueFace2	Mas	1	0.578774612709822
406.056414843672	0.5	target	Exp	Val	Face	Mas	1	0.578774612709822
406.573309896996	6.01851417564467	Jitter2	Exp	Val	Face	Mas	1	0.578774612709822
412.610976334459	0.5	cue	Exp	Val	CueName1	Mas	0	0.607135294760155
413.127998321965	4.63696653491388	Jitter1	Exp	Val	CueName1	Mas	0	0.607135294760155
417.747942869373	0.5	target	Exp	Val	Word	Mas	0	0.607135294760155
418.26478498602	3.9185210631058	Jitter2	Exp	Val	Word	Mas	0	0.607135294760155
422.200983199151	0.5	cue	Exp	Val	CueFace2	Fem	1	0.685212623291591
422.718014009435	5.32072852250894	Jitter1	Exp	Val	CueFace2	Fem	1	0.685212623291591
428.02171172166	0.5	target	Exp	Val	Face	Fem	1	0.685212623291591
428.53860364432	5.31849948998752	Jitter2	Exp	Val	Face	Fem	1	0.685212623291591
433.875718914218	0.5	cue	Exp	Inval	CueFace2	Mas	1	0.61502997468051
434.392779323503	3.23600906412503	Jitter1	Exp	Inval	CueFace2	Mas	1	0.61502997468051
437.611727978343	0.5	target	Exp	Inval	Word	Mas	1	0.61502997468051
438.128615062704	4.61838718454419	Jitter2	Exp	Inval	Word	Mas	1	0.61502997468051
442.765301545523	0.5	cue	Exp	Val	CueFace2	Fem	1	0.577983693226997
443.282352847424	2.53544992759635	Jitter1	Exp	Val	CueFace2	Fem	1	0.577983693226997
445.80075147312	0.5	target	Exp	Val	Face	Fem	1	0.577983693226997
446.317662464367	3.91836566834536	Jitter2	Exp	Val	Face	Fem	1	0.577983693226997
450.253854700777	0.5	cue	Exp	Inval	CueName1	Mas	0	0.799983322100161
450.77091738691	5.32075072176121	Jitter1	Exp	Inval	CueName1	Mas	0	0.799983322100161
456.074605422538	0.5	target	Exp	Inval	Face	Mas	0	0.799983322100161
456.591474007522	2.51840602544689	Jitter2	Exp	Inval	Face	Mas	0	0.799983322100161
459.126722149616	0.5	cue	Exp	Inval	CueFace2	Mas	1	0.521911514922976
459.64376320571	6.03786423848578	Jitter1	Exp	Inval	CueFace2	Mas	1	0.521911514922976
465.664586388102	0.5	target	Exp	Inval	Word	Mas	1	0.521911514922976
466.181483433667	3.91849772542992	Jitter2	Exp	Inval	Word	Mas	1	0.521911514922976
