onset	duration	section	btype	validity	stim	gender	accuracy	reaction_time
10.0644686822379	0.5	cue	Exp	Inval	CueFace2	Fem	1	0.726314480280053
10.5815347336211	4.63695759891561	Jitter1	Exp	Inval	CueFace2	Fem	1	0.726314480280053
15.2014262811535	0.5	target	Exp	Inval	Word	Fem	1	0.726314480280053
15.7183227065707	2.51852751000115	Jitter2	Exp	Inval	Word	Fem	1	0.726314480280053
18.2536027729875	0.5	cue	Exp	Val	CueName1	Mas	1	0.752201793424319
18.770640932853	6.03786828543707	Jitter1	Exp	Val	CueName1	Mas	1	0.752201793424319
24.7914710584246	0.5	target	Exp	Val	Word	Mas	1	0.752201793424319
25.3083677684481	6.01844198550134	Jitter2	Exp	Val	Word	Mas	1	0.752201793424319
31.3461232070804	0.5	cue	Exp	Val	CueFace2	Mas	1	0.608853906222066
31.8630830999318	5.3207113304743	Jitter1	Exp	Val	CueFace2	Mas	1	0.608853906222066
37.1668345375547	0.5	target	Exp	Val	Face	Mas	1	0.608853906222066
37.6836877026581	3.21855224237879	Jitter2	Exp	Val	Face	Mas	1	0.608853906222066
40.9194285198755	0.5	cue	Exp	Inval	CueName1	Mas	1	1.03880051673332
41.4364550108403	6.02131011582605	Jitter1	Exp	Inval	CueName1	Mas	1	1.03880051673332
47.4407386357016	0.5	target	Exp	Inval	Face	Mas	1	1.03880051673332
47.9575878163032	6.01841551701909	Jitter2	Exp	Inval	Face	Mas	1	1.03880051673332
53.9953358551447	0.5	cue	Exp	Val	CueFace2	Fem	1	0.903715349413687
54.5123495387797	3.93641459659921	Jitter1	Exp	Val	CueFace2	Fem	1	0.903715349413687
58.4317504517439	0.5	target	Exp	Val	Face	Fem	1	0.903715349413687
58.9486608229199	6.01845593126018	Jitter2	Exp	Val	Face	Fem	1	0.903715349413687
64.9862921727581	0.5	cue	Exp	Inval	CueFace2	Mas	1	0.919675559032839
65.5033550934622	5.33749718594481	Jitter1	Exp	Inval	CueFace2	Mas	1	0.919675559032839
70.8237893587029	0.5	target	Exp	Inval	Word	Mas	1	0.919675559032839
71.3406547619215	5.31842322987904	Jitter2	Exp	Inval	Word	Mas	1	0.919675559032839
76.6777943387624	0.5	cue	Exp	Inval	CueName1	Fem	1	0.67801120954573
77.1948899893086	2.53552980934364	Jitter1	Exp	Inval	CueName1	Fem	1	0.67801120954573
79.713324148106	0.5	target	Exp	Inval	Face	Fem	1	0.67801120954573
80.2302202889168	3.9184235714074	Jitter2	Exp	Inval	Face	Fem	1	0.67801120954573
84.1664958548372	0.5	cue	Exp	Val	CueFace2	Fem	1	0.652030260589527
84.6835351531317	5.32071275350972	Jitter1	Exp	Val	CueFace2	Fem	1	0.652030260589527
89.9872086083469	0.5	target	Exp	Val	Face	Fem	1	0.652030260589527
90.5040953571151	2.51845237366797	Jitter2	Exp	Val	Face	Fem	1	0.652030260589527
93.0392772340037	0.5	cue	Exp	Val	CueFace2	Mas	1	0.571473295438409
93.5563612156493	3.93646867199095	Jitter1	Exp	Val	CueFace2	Mas	1	0.571473295438409
97.4757459059947	0.5	target	Exp	Val	Face	Mas	1	0.571473295438409
97.9927103525642	4.61852002482919	Jitter2	Exp	Val	Face	Mas	1	0.571473295438409
102.629356164154	0.5	cue	Exp	Val	CueFace2	Fem	0	0.552853430357573
103.146443276481	4.63697126006809	Jitter1	Exp	Val	CueFace2	Fem	0	0.552853430357573
107.766327424222	0.5	target	Exp	Val	Face	Fem	0	0.552853430357573
108.283232103251	4.61859259969788	Jitter2	Exp	Val	Face	Fem	0	0.552853430357573
112.919943374527	0.5	cue	Exp	Val	CueFace2	Mas	1	0.516958754422376
113.436975557639	2.5355007793969	Jitter1	Exp	Val	CueFace2	Mas	1	0.516958754422376
115.955444153924	0.5	target	Exp	Val	Face	Mas	1	0.516958754422376
116.472343710022	4.61846765708106	Jitter2	Exp	Val	Face	Mas	1	0.516958754422376
121.109004890408	0.5	cue	Exp	Val	CueFace2	Fem	1	0.706111060038893
121.626046180954	3.23596949920284	Jitter1	Exp	Val	CueFace2	Fem	1	0.706111060038893
124.844974389611	0.5	target	Exp	Val	Face	Fem	1	0.706111060038893
125.361877645604	5.31847673605444	Jitter2	Exp	Val	Face	Fem	1	0.706111060038893
130.699086666631	0.5	cue	Exp	Val	CueName1	Fem	1	0.761997977580904
131.216136210791	6.03794968313196	Jitter1	Exp	Val	CueName1	Fem	1	0.761997977580904
137.237036349763	0.5	target	Exp	Val	Word	Fem	1	0.761997977580904
137.753901752983	5.31834183218234	Jitter2	Exp	Val	Word	Fem	1	0.761997977580904
143.091141796209	0.5	cue	Exp	Val	CueName1	Fem	1	0.696377489495717
143.608135557331	2.53539319782794	Jitter1	Exp	Val	CueName1	Fem	1	0.696377489495717
146.126534994037	0.5	target	Exp	Val	Word	Fem	1	0.696377489495717
146.643469272229	3.2183689552603	Jitter2	Exp	Val	Word	Fem	1	0.696377489495717
149.879211797088	0.5	cue	Exp	Val	CueFace2	Fem	1	0.598385764167688
150.396248533918	6.02127539373396	Jitter1	Exp	Val	CueFace2	Fem	1	0.598385764167688
156.400487190822	0.5	target	Exp	Val	Face	Fem	1	0.598385764167688
156.91731104137	3.21835671714507	Jitter2	Exp	Val	Face	Fem	1	0.598385764167688
160.153065519738	0.5	cue	Exp	Val	CueName1	Fem	1	0.636809460804216
160.670133563373	4.63694507619221	Jitter1	Exp	Val	CueName1	Fem	1	0.636809460804216
165.290010595931	0.5	target	Exp	Val	Word	Fem	1	0.636809460804216
165.806908728993	6.01845336979386	Jitter2	Exp	Val	Word	Fem	1	0.636809460804216
171.844575939354	0.5	cue	Exp	Val	CueName1	Mas	1	0.754241004913638
172.361697489167	3.23598145270989	Jitter1	Exp	Val	CueName1	Mas	1	0.754241004913638
175.580557392064	0.5	target	Exp	Val	Word	Mas	1	0.754241004913638
176.09745922502	3.91839966439147	Jitter2	Exp	Val	Word	Mas	1	0.754241004913638
180.033645708849	0.5	cue	Exp	Val	CueFace2	Mas	1	0.491733437916992
180.55074705154	6.02129076252822	Jitter1	Exp	Val	CueFace2	Mas	1	0.491733437916992
186.554936471377	0.5	target	Exp	Val	Face	Mas	1	0.491733437916992
187.071837735119	3.91842499444283	Jitter2	Exp	Val	Face	Mas	1	0.491733437916992
191.008047841353	0.5	cue	Exp	Val	CueFace2	Fem	1	0.54716896823993
191.525058678915	2.53546804955477	Jitter1	Exp	Val	CueFace2	Fem	1	0.54716896823993
194.043515890908	0.5	target	Exp	Val	Face	Fem	1	0.54716896823993
194.560409185646	3.91845288596051	Jitter2	Exp	Val	Face	Fem	1	0.54716896823993
198.496666821304	0.5	cue	Exp	Val	CueName1	Fem	1	1.15596452995851
199.013710957923	6.03792748376145	Jitter1	Exp	Val	CueName1	Fem	1	1.15596452995851
205.034594305065	0.5	target	Exp	Val	Word	Fem	1	1.15596452995851
205.55144946242	5.31830853312567	Jitter2	Exp	Val	Word	Fem	1	1.15596452995851
210.888657914233	0.5	cue	Exp	Val	CueName1	Mas	1	0.714399109974693
211.405644560173	2.53548171070724	Jitter1	Exp	Val	CueName1	Mas	1	0.714399109974693
213.92413962494	0.5	target	Exp	Val	Word	Mas	1	0.714399109974693
214.441018689309	4.61857694629543	Jitter2	Exp	Val	Word	Mas	1	0.714399109974693
219.077729391371	0.5	cue	Exp	Val	CueFace2	Mas	1	0.660241181940364
219.594697537834	3.93648432539339	Jitter1	Exp	Val	CueFace2	Mas	1	0.660241181940364
223.514213716764	0.5	target	Exp	Val	Face	Mas	1	0.660241181940364
224.031080258414	2.5183393845582	Jitter2	Exp	Val	Face	Mas	1	0.660241181940364
226.566285188495	0.5	cue	Exp	Val	CueName1	Fem	1	0.851634201035267
227.083350386056	3.93651591680646	Jitter1	Exp	Val	CueName1	Fem	1	0.851634201035267
231.002801105302	0.5	target	Exp	Val	Word	Fem	1	0.851634201035267
231.519663947054	3.91848220051543	Jitter2	Exp	Val	Word	Fem	1	0.851634201035267
235.455887145226	0.5	cue	Exp	Val	CueName1	Fem	1	0.766524941705939
235.972975965196	3.23598401417621	Jitter1	Exp	Val	CueName1	Fem	1	0.766524941705939
239.191871159403	0.5	target	Exp	Val	Word	Fem	1	0.766524941705939
239.708742823983	4.61848701037889	Jitter2	Exp	Val	Word	Fem	1	0.766524941705939
244.345378674318	0.5	cue	Exp	Inval	CueName1	Fem	1	0.904377915268924
244.862450987062	3.93656202319289	Jitter1	Exp	Inval	CueName1	Fem	1	0.904377915268924
248.78194069751	0.5	target	Exp	Inval	Face	Fem	1	0.904377915268924
249.298798985546	4.61833303781532	Jitter2	Exp	Inval	Face	Fem	1	0.904377915268924
253.935515948968	0.5	cue	Exp	Val	CueFace2	Mas	1	1.45449740765434
254.452578015849	4.62026395621797	Jitter1	Exp	Val	CueFace2	Mas	1	1.45449740765434
259.055779905186	0.5	target	Exp	Val	Face	Mas	1	1.45449740765434
259.572676330605	6.0184510929339	Jitter2	Exp	Val	Face	Mas	1	1.45449740765434
265.610407577613	0.5	cue	Exp	Val	CueName1	Fem	1	0.702358512449791
266.127398208057	5.33742489568431	Jitter1	Exp	Val	CueName1	Fem	1	0.702358512449791
271.447832473297	0.5	target	Exp	Val	Word	Fem	1	0.702358512449791
271.96469645348	2.51845578895518	Jitter2	Exp	Val	Word	Fem	1	0.702358512449791
274.499907360316	0.5	cue	Exp	Val	CueName1	Fem	1	0.74980198445337
275.016963165835	3.93639865858859	Jitter1	Exp	Val	CueName1	Fem	1	0.74980198445337
278.936306018904	0.5	target	Exp	Val	Word	Fem	1	0.74980198445337
279.453280426729	2.51848140361471	Jitter2	Exp	Val	Word	Fem	1	0.74980198445337
281.988580700267	0.5	cue	Exp	Val	CueName1	Mas	1	0.812064959915006
282.505488225368	5.33740497317012	Jitter1	Exp	Val	CueName1	Mas	1	0.812064959915006
287.825985673437	0.5	target	Exp	Val	Word	Mas	1	0.812064959915006
288.342849938226	5.31850832746932	Jitter2	Exp	Val	Word	Mas	1	0.812064959915006
293.679999191716	0.5	cue	Exp	Val	CueFace2	Fem	1	0.636758800699681
294.197083173362	6.0213052775016	Jitter1	Exp	Val	CueFace2	Fem	1	0.636758800699681
300.201304469218	0.5	target	Exp	Val	Face	Fem	1	0.636758800699681
300.718207155996	3.21834362520895	Jitter2	Exp	Val	Face	Fem	1	0.636758800699681
303.953941996459	0.5	cue	Exp	Val	CueName1	Mas	1	0.719573555767056
304.47094970334	3.93647123345727	Jitter1	Exp	Val	CueName1	Mas	1	0.719573555767056
308.390413229916	0.5	target	Exp	Val	Word	Mas	1	0.719573555767056
308.907263264338	3.21840481578329	Jitter2	Exp	Val	Word	Mas	1	0.719573555767056
312.1430407959	0.5	cue	Exp	Inval	CueFace2	Fem	1	0.859459479459474
312.660001542572	2.53542763531368	Jitter1	Exp	Inval	CueFace2	Fem	1	0.859459479459474
315.178468431213	0.5	target	Exp	Inval	Word	Fem	1	0.859459479459474
315.695365995061	6.01845792351014	Jitter2	Exp	Inval	Word	Fem	1	0.859459479459474
321.73308870385	0.5	cue	Exp	Val	CueName1	Mas	1	0.567819791194779
322.250152762983	4.63694763766034	Jitter1	Exp	Val	CueName1	Mas	1	0.567819791194779
326.87003634151	0.5	target	Exp	Val	Word	Mas	1	0.567819791194779
327.386897191012	2.51850787209514	Jitter2	Exp	Val	Word	Mas	1	0.567819791194779
329.922121474392	0.5	cue	Exp	Val	CueFace2	Mas	1	0.643739079972875
330.439207163681	3.23599739072051	Jitter1	Exp	Val	CueFace2	Mas	1	0.643739079972875
333.658118865113	0.5	target	Exp	Val	Face	Mas	1	0.643739079972875
334.174993091157	5.31855358003304	Jitter2	Exp	Val	Face	Mas	1	0.643739079972875
339.512143483076	0.5	cue	Exp	Val	CueFace2	Mas	1	0.541638763290393
340.029227464722	3.23600393668858	Jitter1	Exp	Val	CueFace2	Mas	1	0.541638763290393
343.248147419765	0.5	target	Exp	Val	Face	Mas	1	0.541638763290393
343.765052952616	2.51845265827615	Jitter2	Exp	Val	Face	Mas	1	0.541638763290393
346.300349810865	0.5	cue	Exp	Val	CueName1	Mas	1	0.62997860037467
346.817381993977	2.53544158107434	Jitter1	Exp	Val	CueName1	Mas	1	0.62997860037467
349.335791391939	0.5	target	Exp	Val	Word	Mas	1	0.62997860037467
349.852663625734	6.01839331764677	Jitter2	Exp	Val	Word	Mas	1	0.62997860037467
355.890402841747	0.5	cue	Exp	Inval	CueFace2	Fem	1	0.814900502702585
356.407374403499	3.93634771387769	Jitter1	Exp	Inval	CueFace2	Fem	1	0.814900502702585
360.326750555625	0.5	target	Exp	Inval	Word	Fem	1	0.814900502702585
360.843699918005	3.21859749494433	Jitter2	Exp	Inval	Word	Fem	1	0.814900502702585
364.07940145941	0.5	cue	Exp	Val	CueName1	Mas	1	0.590217533917894
364.596475764407	3.23599454464602	Jitter1	Exp	Val	CueName1	Mas	1	0.590217533917894
367.815396004056	0.5	target	Exp	Val	Word	Mas	1	0.590217533917894
368.332283606647	3.21849816698705	Jitter2	Exp	Val	Word	Mas	1	0.590217533917894
371.568053169203	0.5	cue	Exp	Inval	CueName1	Fem	0	0.637662144352362
372.084965817237	3.23591542380927	Jitter1	Exp	Inval	CueName1	Fem	0	0.637662144352362
375.303968593013	0.5	target	Exp	Inval	Face	Fem	0	0.637662144352362
375.820870141362	5.31849381249413	Jitter2	Exp	Inval	Face	Fem	0	0.637662144352362
381.158099654118	0.5	cue	Exp	Inval	CueName1	Mas	1	0.567141287330742
381.675137813983	4.62028587098212	Jitter1	Exp	Inval	CueName1	Mas	1	0.567141287330742
386.2783855251	0.5	target	Exp	Inval	Face	Mas	1	0.567141287330742
386.795230436592	3.2184144924322	Jitter2	Exp	Inval	Face	Mas	1	0.567141287330742
390.030938808572	0.5	cue	Exp	Val	CueName1	Fem	1	0.737042753427886
390.547984083621	5.33745221798745	Jitter1	Exp	Val	CueName1	Fem	1	0.737042753427886
395.868391026559	0.5	target	Exp	Val	Word	Fem	1	0.737042753427886
396.385289728836	4.61845171907044	Jitter2	Exp	Val	Word	Fem	1	0.737042753427886
401.022044545032	0.5	cue	Exp	Val	CueFace2	Mas	1	0.63833495606923
401.539065628458	4.63694308394224	Jitter1	Exp	Val	CueFace2	Mas	1	0.63833495606923
406.158987628975	0.5	target	Exp	Val	Face	Mas	1	0.63833495606923
406.675862708842	6.01824048351409	Jitter2	Exp	Val	Face	Mas	1	0.63833495606923
412.713536465171	0.5	cue	Exp	Val	CueName1	Mas	1	0.578791688214551
413.230582024828	4.63697495996348	Jitter1	Exp	Val	CueName1	Mas	1	0.578791688214551
417.850511425135	0.5	target	Exp	Val	Word	Mas	1	0.578791688214551
418.367373128458	3.91826106062399	Jitter2	Exp	Val	Word	Mas	1	0.578791688214551
422.303596895845	0.5	cue	Exp	Val	CueFace2	Fem	1	0.704857933984385
422.820631071208	5.32076654429511	Jitter1	Exp	Val	CueFace2	Fem	1	0.704857933984385
428.12436344014	0.5	target	Exp	Val	Face	Fem	1	0.704857933984385
428.641245919798	5.31852198861998	Jitter2	Exp	Val	Face	Fem	1	0.704857933984385
433.978454371612	0.5	cue	Exp	Inval	CueFace2	Mas	1	0.730703979066675
434.495545183832	3.23599852914958	Jitter1	Exp	Inval	CueFace2	Mas	1	0.730703979066675
437.714452900762	0.5	target	Exp	Inval	Word	Mas	1	0.730703979066675
438.231305212043	4.61844830378323	Jitter2	Exp	Inval	Word	Mas	1	0.730703979066675
442.867984322691	0.5	cue	Exp	Val	CueFace2	Fem	1	0.789613995622858
443.385084242345	2.53549651028698	Jitter1	Exp	Val	CueFace2	Fem	1	0.789613995622858
445.903480832978	0.5	target	Exp	Val	Face	Fem	1	0.789613995622858
446.420382381328	3.91862649643008	Jitter2	Exp	Val	Face	Fem	1	0.789613995622858
450.356607002535	0.5	cue	Exp	Inval	CueName1	Mas	1	0.555747602254996
450.873682445961	5.32076625968875	Jitter1	Exp	Inval	CueName1	Mas	1	0.555747602254996
456.177373262224	0.5	target	Exp	Inval	Face	Mas	1	0.555747602254996
456.694256595705	2.51839431377266	Jitter2	Exp	Inval	Face	Mas	1	0.555747602254996
459.22949738631	0.5	cue	Exp	Inval	CueFace2	Mas	1	1.12561514315894
459.746492285862	6.03791695328982	Jitter1	Exp	Inval	CueFace2	Mas	1	1.12561514315894
465.7674143396	0.5	target	Exp	Inval	Word	Mas	1	1.12561514315894
466.284313326483	3.91850724596043	Jitter2	Exp	Inval	Word	Mas	1	1.12561514315894
