onset	duration	section	btype	validity	stim	gender	accuracy	reaction_time
10.0716119607132	0.5	cue	Exp	Inval	CueFace1	Fem	1	0.516971040837234
10.588639069354	3.93647105264972	Jitter1	Exp	Inval	CueFace1	Fem	1	0.516971040837234
14.5080830133629	0.5	target	Exp	Inval	Word	Fem	1	0.516971040837234
15.0249763561787	3.21843162132973	Jitter2	Exp	Inval	Word	Fem	1	0.516971040837234
18.2607280902248	0.5	cue	Exp	Val	CueFace1	Mas	1	0.606236959611124
18.7777503605266	5.32078254145381	Jitter1	Exp	Val	CueFace1	Mas	1	0.606236959611124
24.0815106316786	0.5	target	Exp	Val	Face	Mas	1	0.606236959611124
24.5984014130227	5.31836920676506	Jitter2	Exp	Val	Face	Mas	1	0.606236959611124
29.9356270472217	0.5	cue	Exp	Val	CueName2	Fem	1	0.516970756230876
30.4526772091212	3.2359701707901	Jitter1	Exp	Val	CueName2	Fem	1	0.516970756230876
33.6715972180118	0.5	target	Exp	Val	Word	Fem	1	0.516970756230876
34.1885050758447	4.61849417819758	Jitter2	Exp	Val	Word	Fem	1	0.516970756230876
38.8252406432948	0.5	cue	Exp	Val	CueFace1	Mas	1	0.533157274740006
39.34227771322	6.02128228487891	Jitter1	Exp	Val	CueFace1	Mas	1	0.533157274740006
45.3465229281737	0.5	target	Exp	Val	Face	Mas	1	0.533157274740006
45.8634071635297	3.91844155415492	Jitter2	Exp	Val	Face	Mas	1	0.533157274740006
49.7996512411901	0.5	cue	Exp	Inval	CueName2	Fem	1	0.486814247369693
50.3166681039384	6.02126093926927	Jitter1	Exp	Inval	CueName2	Fem	1	0.486814247369693
56.3209121804593	0.5	target	Exp	Inval	Face	Fem	1	0.486814247369693
56.8378228843721	3.91844354641216	Jitter2	Exp	Inval	Face	Fem	1	0.486814247369693
60.7740951382384	0.5	cue	Exp	Val	CueFace1	Mas	1	0.536338624482596
61.2911287928655	6.02125325485031	Jitter1	Exp	Val	CueFace1	Mas	1	0.536338624482596
67.2953483930887	0.5	target	Exp	Val	Face	Mas	1	0.536338624482596
67.8122397436473	5.31843381281396	Jitter2	Exp	Val	Face	Mas	1	0.536338624482596
73.1493882490431	0.5	cue	Exp	Val	CueFace1	Mas	1	0.529912172774857
73.666504724637	4.62036761125273	Jitter1	Exp	Val	CueFace1	Mas	1	0.529912172774857
78.2697558602958	0.5	target	Exp	Val	Face	Mas	1	0.529912172774857
78.7866702641131	6.01834014827546	Jitter2	Exp	Val	Face	Mas	1	0.529912172774857
84.8243478275726	0.5	cue	Exp	Inval	CueName2	Fem	1	0.591224165053063
85.3414076661484	3.23599180100791	Jitter1	Exp	Inval	CueName2	Fem	1	0.591224165053063
88.5603396285806	0.5	target	Exp	Inval	Face	Fem	1	0.591224165053063
89.0772511863179	3.21841824474723	Jitter2	Exp	Inval	Face	Fem	1	0.591224165053063
92.3129889745651	0.5	cue	Exp	Val	CueFace1	Mas	1	0.516971040837234
92.8300305982211	4.62028393646142	Jitter1	Exp	Val	CueFace1	Mas	1	0.516971040837234
97.4332729110265	0.5	target	Exp	Val	Face	Mas	1	0.516971040837234
97.9501790612085	6.01831026442051	Jitter2	Exp	Val	Face	Mas	1	0.516971040837234
103.98782247169	0.5	cue	Exp	Val	CueName2	Mas	1	0.486145418250089
104.504891417728	5.33752461504628	Jitter1	Exp	Val	CueName2	Mas	1	0.486145418250089
109.825347086737	0.5	target	Exp	Val	Word	Mas	1	0.486145418250089
110.342258644474	4.618421033907	Jitter2	Exp	Val	Word	Mas	1	0.486145418250089
114.979004457817	0.5	cue	Exp	Val	CueName2	Mas	1	0.560995934942184
115.496037827837	2.53549518827276	Jitter1	Exp	Val	CueName2	Mas	1	0.560995934942184
118.014499646089	0.5	target	Exp	Val	Word	Mas	1	0.560995934942184
118.531366235742	6.01842866140396	Jitter2	Exp	Val	Word	Mas	1	0.560995934942184
124.569015907602	0.5	cue	Exp	Inval	CueFace1	Mas	1	0.474858998013588
125.086128398683	2.53554897921094	Jitter1	Exp	Inval	CueFace1	Mas	1	0.474858998013588
127.604564886813	0.5	target	Exp	Inval	Word	Mas	1	0.474858998013588
128.121474167685	6.01842069237682	Jitter2	Exp	Inval	Word	Mas	1	0.474858998013588
134.159193283931	0.5	cue	Exp	Val	CueName2	Mas	1	0.479234278885997
134.676165747809	4.63697022685847	Jitter1	Exp	Val	CueName2	Mas	1	0.479234278885997
139.296163510789	0.5	target	Exp	Val	Word	Mas	1	0.479234278885997
139.813054007525	5.31842442074412	Jitter2	Exp	Val	Word	Mas	1	0.479234278885997
145.150223858529	0.5	cue	Exp	Inval	CueName2	Mas	0	0.548322619259125
145.667332365096	5.32084857054178	Jitter1	Exp	Inval	CueName2	Mas	0	0.548322619259125
150.971072429071	0.5	target	Exp	Inval	Face	Mas	0	0.548322619259125
151.487957233643	2.51842766527625	Jitter2	Exp	Inval	Face	Mas	0	0.548322619259125
154.023322498302	0.5	cue	Exp	Val	CueFace1	Fem	1	0.55672823594432
154.540240032809	2.53528856276535	Jitter1	Exp	Val	CueFace1	Fem	1	0.55672823594432
157.058611061068	0.5	target	Exp	Val	Face	Fem	1	0.55672823594432
157.575589786326	2.51844075725057	Jitter2	Exp	Val	Face	Fem	1	0.55672823594432
160.110860561083	0.5	cue	Exp	Val	CueName2	Fem	1	0.556031515227005
160.627807694837	3.93644230722748	Jitter1	Exp	Val	CueName2	Fem	1	0.556031515227005
164.54730286831	0.5	target	Exp	Val	Word	Fem	1	0.556031515227005
165.064208164667	5.31836436842787	Jitter2	Exp	Val	Word	Fem	1	0.556031515227005
170.401437783381	0.5	cue	Exp	Val	CueFace1	Fem	1	0.581909225373238
170.918474853306	3.2359701707901	Jitter1	Exp	Val	CueFace1	Fem	1	0.581909225373238
174.137407954171	0.5	target	Exp	Val	Face	Fem	1	0.581909225373238
174.654314673569	3.91850900628378	Jitter2	Exp	Val	Face	Fem	1	0.581909225373238
178.590548789945	0.5	cue	Exp	Val	CueName2	Mas	1	0.549251580214332
179.107528653636	2.53541379034687	Jitter1	Exp	Val	CueName2	Mas	1	0.549251580214332
181.625962580292	0.5	target	Exp	Val	Word	Mas	1	0.549251580214332
182.142928498182	5.31847024265517	Jitter2	Exp	Val	Word	Mas	1	0.549251580214332
187.480096641539	0.5	cue	Exp	Inval	CueName2	Fem	1	0.422789939557333
187.997182379455	4.62035224241299	Jitter1	Exp	Inval	CueName2	Fem	1	0.422789939557333
192.600448883952	0.5	target	Exp	Inval	Face	Fem	1	0.422789939557333
193.117408255855	5.3184540199909	Jitter2	Exp	Inval	Face	Fem	1	0.422789939557333
198.454578391469	0.5	cue	Exp	Inval	CueName2	Mas	1	0.51696648710822
198.971675513711	3.93646052214717	Jitter1	Exp	Inval	CueName2	Mas	1	0.51696648710822
202.891038913616	0.5	target	Exp	Inval	Face	Mas	1	0.51696648710822
203.407939940853	4.61848194004779	Jitter2	Exp	Inval	Face	Mas	1	0.51696648710822
208.044670954572	0.5	cue	Exp	Val	CueName2	Fem	1	0.516962502593742
208.561703755377	4.63696225783133	Jitter1	Exp	Val	CueName2	Fem	1	0.516962502593742
213.181633212404	0.5	target	Exp	Val	Word	Fem	1	0.516962502593742
213.698532816599	2.51842197311453	Jitter2	Exp	Val	Word	Fem	1	0.516962502593742
216.233843721104	0.5	cue	Exp	Val	CueName2	Mas	1	0.467385188367189
216.750811631251	6.03789742324261	Jitter1	Exp	Val	CueName2	Mas	1	0.467385188367189
222.771741144346	0.5	target	Exp	Val	Word	Mas	1	0.467385188367189
223.288671201613	3.21828419431404	Jitter2	Exp	Val	Word	Mas	1	0.467385188367189
226.524389921115	0.5	cue	Exp	Val	CueFace1	Mas	1	0.522798107811468
227.041421583486	3.23595850185666	Jitter1	Exp	Val	CueFace1	Mas	1	0.522798107811468
230.260348422971	0.5	target	Exp	Val	Face	Mas	1	0.522798107811468
230.777253150114	3.21849708120135	Jitter2	Exp	Val	Face	Mas	1	0.522798107811468
234.013013137796	0.5	cue	Exp	Val	CueName2	Fem	1	0.716574410940666
234.530045653992	5.33743524809142	Jitter1	Exp	Val	CueName2	Fem	1	0.716574410940666
239.850448385887	0.5	target	Exp	Val	Word	Fem	1	0.716574410940666
240.367361082057	2.5184151425201	Jitter2	Exp	Val	Word	Fem	1	0.716574410940666
242.902607665123	0.5	cue	Exp	Val	CueName2	Fem	1	0.516961364161034
243.419699664419	4.63697221911571	Jitter1	Exp	Val	CueName2	Fem	1	0.516961364161034
248.039579884238	0.5	target	Exp	Val	Word	Fem	1	0.516961364161034
248.556478350001	3.2184088526792	Jitter2	Exp	Val	Word	Fem	1	0.516961364161034
251.79223748386	0.5	cue	Exp	Val	CueName2	Fem	1	0.468849212616988
252.309249508267	6.03792104571767	Jitter1	Exp	Val	CueName2	Fem	1	0.468849212616988
258.330158529578	0.5	target	Exp	Val	Word	Fem	1	0.468849212616988
258.847063256721	3.91835446406367	Jitter2	Exp	Val	Word	Fem	1	0.468849212616988
262.78327061993	0.5	cue	Exp	Val	CueName2	Mas	1	0.535696548529813
263.300337289102	3.23600005464505	Jitter1	Exp	Val	CueName2	Mas	1	0.535696548529813
266.519270674575	0.5	target	Exp	Val	Word	Mas	1	0.535696548529813
267.036183086137	6.01843947651469	Jitter2	Exp	Val	Word	Mas	1	0.535696548529813
273.073893948747	0.5	cue	Exp	Val	CueFace1	Fem	1	0.549109560755824
273.590934149363	3.23598041668265	Jitter1	Exp	Val	CueFace1	Fem	1	0.549109560755824
276.80987436543	0.5	target	Exp	Val	Face	Fem	1	0.549109560755824
277.326769415897	4.6185328849042	Jitter2	Exp	Val	Face	Fem	1	0.549109560755824
281.963505837171	0.5	cue	Exp	Val	CueFace1	Mas	1	0.478949670750808
282.480532376594	3.9364710526479	Jitter1	Exp	Val	CueFace1	Mas	1	0.478949670750808
286.399976889819	0.5	target	Exp	Val	Face	Mas	1	0.478949670750808
286.91687421715	2.51843933421151	Jitter2	Exp	Val	Face	Mas	1	0.478949670750808
289.452128484636	0.5	cue	Exp	Val	CueName2	Mas	1	0.498781450267415
289.969182915656	3.23600375454953	Jitter1	Exp	Val	CueName2	Mas	1	0.498781450267415
293.188132239186	0.5	target	Exp	Val	Word	Mas	1	0.498781450267415
293.70499541354	2.51841713477552	Jitter2	Exp	Val	Word	Mas	1	0.498781450267415
296.240244842687	0.5	cue	Exp	Val	CueFace1	Fem	1	0.581327770953067
296.757286181733	6.02128342331162	Jitter1	Exp	Val	CueFace1	Fem	1	0.581327770953067
302.761528265999	0.5	target	Exp	Val	Face	Fem	1	0.581327770953067
303.278411078314	2.51843164979073	Jitter2	Exp	Val	Face	Fem	1	0.581327770953067
305.813669045707	0.5	cue	Exp	Val	CueName2	Mas	1	0.540662391284059
306.330702131118	3.93649581355567	Jitter1	Exp	Val	CueName2	Mas	1	0.540662391284059
310.250164859262	0.5	target	Exp	Val	Word	Mas	1	0.540662391284059
310.767036856469	3.91857190467999	Jitter2	Exp	Val	Word	Mas	1	0.540662391284059
314.70329459532	0.5	cue	Exp	Inval	CueFace1	Fem	1	0.527579809102463
315.220383463926	3.23595878646483	Jitter1	Exp	Inval	CueFace1	Fem	1	0.527579809102463
318.439253381785	0.5	target	Exp	Inval	Word	Fem	1	0.527579809102463
318.956158962752	2.51852557047459	Jitter2	Exp	Inval	Word	Fem	1	0.527579809102463
321.491404407385	0.5	cue	Exp	Val	CueName2	Fem	1	0.541936297298889
322.008427531511	5.33745801674195	Jitter1	Exp	Val	CueName2	Fem	1	0.541936297298889
327.328862424127	0.5	target	Exp	Val	Word	Fem	1	0.541936297298889
327.845764589796	6.01847220644959	Jitter2	Exp	Val	Word	Fem	1	0.541936297298889
333.883450122283	0.5	cue	Exp	Inval	CueFace1	Mas	1	0.425248953850314
334.400525614305	6.0380010206045	Jitter1	Exp	Inval	CueFace1	Mas	1	0.425248953850314
340.421451142887	0.5	target	Exp	Inval	Word	Mas	1	0.425248953850314
340.938457759741	4.61839854986465	Jitter2	Exp	Inval	Word	Mas	1	0.425248953850314
345.575137828606	0.5	cue	Exp	Val	CueName2	Mas	1	0.531247554148649
346.092098908157	3.93639961600638	Jitter1	Exp	Val	CueName2	Mas	1	0.531247554148649
350.011537444612	0.5	target	Exp	Val	Word	Mas	1	0.531247554148649
350.52843961028	4.61843270284226	Jitter2	Exp	Val	Word	Mas	1	0.531247554148649
355.165167493311	0.5	cue	Exp	Val	CueFace1	Fem	1	0.445105778882862
355.682208832359	3.93646678352707	Jitter1	Exp	Val	CueFace1	Fem	1	0.445105778882862
359.601634276838	0.5	target	Exp	Val	Face	Fem	1	0.445105778882862
360.118667646857	6.01818332919174	Jitter2	Exp	Val	Face	Fem	1	0.445105778882862
366.156173022393	0.5	cue	Exp	Inval	CueFace1	Mas	1	0.49293816062891
366.67325420658	5.33753030720982	Jitter1	Exp	Inval	CueFace1	Mas	1	0.49293816062891
371.993703329603	0.5	target	Exp	Inval	Word	Mas	1	0.49293816062891
372.510627979313	3.91841053186727	Jitter2	Exp	Inval	Word	Mas	1	0.49293816062891
376.446780982371	0.5	cue	Exp	Inval	CueFace1	Fem	1	0.438836146257017
376.963939864578	4.63702885613384	Jitter1	Exp	Inval	CueFace1	Fem	1	0.438836146257017
381.583809838505	0.5	target	Exp	Inval	Word	Fem	1	0.438836146257017
382.100848046863	5.3182994777726	Jitter2	Exp	Inval	Word	Fem	1	0.438836146257017
387.437946461225	0.5	cue	Exp	Val	CueFace1	Mas	1	0.571874227111039
387.954982392717	5.32078851822553	Jitter1	Exp	Val	CueFace1	Mas	1	0.571874227111039
393.25873497945	0.5	target	Exp	Val	Face	Mas	1	0.571874227111039
393.775627468442	3.91843187747691	Jitter2	Exp	Val	Face	Mas	1	0.571874227111039
397.711863861683	0.5	cue	Exp	Inval	CueName2	Mas	1	0.555265065517233
398.228907192986	2.53540866739968	Jitter1	Exp	Inval	CueName2	Mas	1	0.555265065517233
400.747272529083	0.5	target	Exp	Inval	Face	Mas	1	0.555265065517233
401.264253246596	6.01841699247234	Jitter2	Exp	Inval	Face	Mas	1	0.555265065517233
407.301966955289	0.5	cue	Exp	Val	CueFace1	Mas	1	0.517065815345632
407.818994348536	2.53547725795943	Jitter1	Exp	Val	CueFace1	Mas	1	0.517065815345632
410.337444213248	0.5	target	Exp	Val	Face	Mas	1	0.517065815345632
410.854348940389	4.61842530302965	Jitter2	Exp	Val	Face	Mas	1	0.517065815345632
415.491068569785	0.5	cue	Exp	Val	CueFace1	Fem	1	0.678943238606735
416.008105070494	3.93647219108061	Jitter1	Exp	Val	CueFace1	Fem	1	0.678943238606735
419.927540760866	0.5	target	Exp	Val	Face	Fem	1	0.678943238606735
420.444448334089	3.21842905985795	Jitter2	Exp	Val	Face	Fem	1	0.678943238606735
423.680205760298	0.5	cue	Exp	Val	CueFace1	Fem	1	0.558006126475448
424.197237422668	4.62027596743246	Jitter1	Exp	Val	CueFace1	Fem	1	0.558006126475448
428.800481727731	0.5	target	Exp	Val	Face	Fem	1	0.558006126475448
429.317370801426	4.61843213362408	Jitter2	Exp	Val	Face	Fem	1	0.558006126475448
433.954123729971	0.5	cue	Exp	Val	CueName2	Fem	1	0.60089201881965
434.471139454286	2.53546274294604	Jitter1	Exp	Val	CueName2	Fem	1	0.60089201881965
436.989586472917	0.5	target	Exp	Val	Word	Fem	1	0.60089201881965
437.506483515639	3.21842336769441	Jitter2	Exp	Val	Word	Fem	1	0.60089201881965
440.742237526551	0.5	cue	Exp	Val	CueFace1	Fem	1	0.491377369611655
441.259277727166	5.32080644853704	Jitter1	Exp	Val	CueFace1	Fem	1	0.491377369611655
446.563043975088	0.5	target	Exp	Val	Face	Fem	1	0.491377369611655
447.079908857091	5.31841559789063	Jitter2	Exp	Val	Face	Fem	1	0.491377369611655
452.417130791384	0.5	cue	Exp	Val	CueFace1	Fem	1	0.481696993087098
452.934176399553	2.53552848742402	Jitter1	Exp	Val	CueFace1	Fem	1	0.481696993087098
455.452659278808	0.5	target	Exp	Val	Face	Fem	1	0.481696993087098
455.969513914919	3.21830070158649	Jitter2	Exp	Val	Face	Fem	1	0.481696993087098
459.20528329467	0.5	cue	Exp	Val	CueName2	Fem	1	0.463100697490518
459.72228735005	6.03794096828642	Jitter1	Exp	Val	CueName2	Fem	1	0.463100697490518
465.743224262957	0.5	target	Exp	Val	Word	Fem	1	0.463100697490518
466.260251656206	3.9	Jitter2	Exp	Val	Word	Fem	1	0.463100697490518
