onset	duration	section	btype	validity	stim	gender	accuracy	reaction_time
10.0589480371	0.5	cue	Att	Val	CueFace2	Fem	1	0.516970187012703
10.5759836839843	4.63697221911571	Jitter1	Att	Val	CueFace2	Fem	1	0.516970187012703
15.1959202562157	0.5	target	Att	Val	Face	Fem	1	0.516970187012703
15.7128070530453	2.51833659067233	Jitter2	Att	Val	Face	Fem	1	0.516970187012703
18.2480300136358	0.5	cue	Att	Val	CueFace2	Mas	1	0.446734022028977
18.7650861523052	4.6369770574529	Jitter1	Att	Val	CueFace2	Mas	1	0.446734022028977
23.3850070710887	0.5	target	Att	Val	Face	Mas	1	0.446734022028977
23.9020375950277	4.61817342482937	Jitter2	Att	Val	Face	Mas	1	0.446734022028977
28.5386513501944	0.5	cue	Att	Inval	CueFace2	Mas	0	0.540060160466965
29.0557382265433	4.63697677284654	Jitter1	Att	Inval	CueFace2	Mas	0	0.540060160466965
33.675628123041	0.5	target	Att	Inval	Word	Mas	0	0.540060160466965
34.1924992664226	4.618318859586	Jitter2	Att	Inval	Word	Mas	0	0.540060160466965
38.829246218198	0.5	cue	Att	Inval	CueName1	Mas	1	0.637692704611254
39.346271903798	5.32078851822553	Jitter1	Att	Inval	CueName1	Mas	1	0.637692704611254
44.6500347364235	0.5	target	Att	Inval	Face	Mas	1	0.637692704611254
45.1669209640368	5.31845401998908	Jitter2	Att	Inval	Face	Mas	1	0.637692704611254
50.5041579825611	0.5	cue	Att	Val	CueFace2	Fem	1	0.548034026609457
51.02119135258	2.53547071197318	Jitter1	Att	Val	CueFace2	Fem	1	0.548034026609457
53.5396286945343	0.5	target	Att	Val	Face	Fem	1	0.548034026609457
54.056534560108	6.01844232259646	Jitter2	Att	Val	Face	Fem	1	0.548034026609457
60.0942516840969	0.5	cue	Att	Val	CueName1	Mas	1	0.520428175863344
60.6112887540221	4.63696339626404	Jitter1	Att	Val	CueName1	Mas	1	0.520428175863344
65.2312150803609	0.5	target	Att	Val	Word	Mas	1	0.520428175863344
65.7481226535838	3.91841622402899	Jitter2	Att	Val	Word	Mas	1	0.520428175863344
69.6843516470126	0.5	cue	Att	Val	CueName1	Mas	1	0.779237722645121
70.2013113035246	3.23597586295364	Jitter1	Att	Val	CueName1	Mas	1	0.779237722645121
73.4203275099662	0.5	target	Att	Val	Word	Mas	1	0.779237722645121
73.9372356524054	6.0184343535675	Jitter2	Att	Val	Word	Mas	1	0.779237722645121
79.9749527763943	0.5	cue	Att	Val	CueFace2	Mas	1	0.547797801858906
80.4919921231849	5.32078396449469	Jitter1	Att	Val	CueFace2	Mas	1	0.547797801858906
85.795736740889	0.5	target	Att	Val	Face	Mas	1	0.547797801858906
86.3126354912602	5.31841673632516	Jitter2	Att	Val	Face	Mas	1	0.547797801858906
91.6498611254592	0.5	cue	Att	Val	CueName1	Mas	1	0.577224575457876
92.1668685961395	3.93645625302634	Jitter1	Att	Val	CueName1	Mas	1	0.577224575457876
96.0863173784855	0.5	target	Att	Val	Word	Mas	1	0.577224575457876
96.6032221056284	2.51843648812792	Jitter2	Att	Val	Word	Mas	1	0.577224575457876
99.1384914573446	0.5	cue	Att	Val	CueFace2	Mas	1	0.57176322993655
99.6555265350125	6.02126606221645	Jitter1	Att	Val	CueFace2	Mas	1	0.57176322993655
105.659757519561	0.5	target	Att	Val	Face	Mas	1	0.57176322993655
106.176652285418	2.51842937292531	Jitter2	Att	Val	Face	Mas	1	0.57176322993655
108.711896591618	0.5	cue	Att	Val	CueName1	Mas	1	0.554127771407366
109.228922561826	5.3374842006906	Jitter1	Att	Val	CueName1	Mas	1	0.554127771407366
114.549380792309	0.5	target	Att	Val	Word	Mas	1	0.554127771407366
115.066259335503	5.31842925908131	Jitter2	Att	Val	Word	Mas	1	0.554127771407366
120.403488100392	0.5	cue	Att	Val	CueName1	Mas	1	0.482021446361614
120.920526024142	6.03795121418079	Jitter1	Att	Val	CueName1	Mas	1	0.482021446361614
126.941439314573	0.5	target	Att	Val	Word	Mas	1	0.482021446361614
127.458330380523	4.61842814911142	Jitter2	Att	Val	Word	Mas	1	0.482021446361614
132.095073917002	0.5	cue	Att	Inval	CueFace2	Fem	1	0.494444876101625
132.612097610345	6.03787095468579	Jitter1	Att	Inval	CueFace2	Fem	1	0.494444876101625
138.632944871688	0.5	target	Att	Inval	Word	Fem	1	0.494444876101625
139.149918758607	6.01842524610765	Jitter2	Att	Inval	Word	Fem	1	0.494444876101625
145.187649543786	0.5	cue	Att	Inval	CueName1	Fem	1	0.619412324043878
145.704684906064	4.62028649793501	Jitter1	Att	Inval	CueName1	Fem	1	0.619412324043878
150.307936041721	0.5	target	Att	Inval	Face	Fem	1	0.619412324043878
150.824831661403	5.3184187285824	Jitter2	Att	Inval	Face	Fem	1	0.619412324043878
156.162054734128	0.5	cue	Att	Val	CueName1	Fem	1	0.945875501585761
156.679090665621	2.53547327344677	Jitter1	Att	Val	CueName1	Fem	1	0.945875501585761
159.197528007575	0.5	target	Att	Val	Word	Fem	1	0.945875501585761
159.714434442365	3.2183092398318	Jitter2	Att	Val	Word	Fem	1	0.945875501585761
162.950177922776	0.5	cue	Att	Inval	CueFace2	Mas	1	0.539727453557134
163.467222961728	5.33742784828064	Jitter1	Att	Inval	CueFace2	Mas	1	0.539727453557134
168.787605771056	0.5	target	Att	Inval	Word	Mas	1	0.539727453557134
169.30453298224	3.9184321620869	Jitter2	Att	Inval	Word	Mas	1	0.539727453557134
173.240778482941	0.5	cue	Att	Inval	CueName1	Mas	1	0.453162750600313
173.757809860705	6.02128370792161	Jitter1	Att	Inval	CueName1	Mas	1	0.453162750600313
179.762062190863	0.5	target	Att	Inval	Face	Mas	1	0.453162750600313
180.278944149353	6.01843179209391	Jitter2	Att	Inval	Face	Mas	1	0.453162750600313
186.316676072965	0.5	cue	Att	Val	CueName1	Fem	1	0.481592826508859
186.833714565932	4.63695599645143	Jitter1	Att	Val	CueName1	Fem	1	0.481592826508859
191.453632069417	0.5	target	Att	Val	Word	Fem	1	0.481592826508859
191.970557003737	2.51834370587676	Jitter2	Att	Val	Word	Fem	1	0.481592826508859
194.505765449312	0.5	cue	Att	Inval	CueName1	Mas	1	1.24898259706606
195.022812480522	3.93648186775863	Jitter1	Att	Inval	CueName1	Mas	1	1.24898259706606
198.942247317071	0.5	target	Att	Inval	Face	Mas	1	1.24898259706606
199.459152898036	3.21842023700447	Jitter2	Att	Inval	Face	Mas	1	1.24898259706606
202.694901786001	0.5	cue	Att	Val	CueName1	Fem	1	0.570885498445932
203.211995492946	5.33737889568147	Jitter1	Att	Val	CueName1	Fem	1	0.570885498445932
208.532280681682	0.5	target	Att	Val	Word	Fem	1	0.570885498445932
209.049255422426	5.31846796578793	Jitter2	Att	Val	Word	Fem	1	0.570885498445932
214.386487887219	0.5	cue	Att	Val	CueName1	Fem	1	0.522816891947514
214.903518411158	6.0378698162549	Jitter1	Att	Val	CueName1	Fem	1	0.522816891947514
220.924357703474	0.5	target	Att	Val	Word	Fem	1	0.522816891947514
221.441331305785	6.01842382306677	Jitter2	Att	Val	Word	Fem	1	0.522816891947514
227.479058391058	0.5	cue	Att	Inval	CueFace2	Mas	0	0.568075277713433
227.996092899512	3.23597529373728	Jitter1	Att	Inval	CueFace2	Mas	0	0.568075277713433
231.215033684795	0.5	target	Att	Inval	Word	Mas	0	0.568075277713433
231.731930442909	3.21844869781853	Jitter2	Att	Inval	Word	Mas	0	0.568075277713433
234.9676801847	0.5	cue	Att	Inval	CueName1	Fem	1	0.516977586825305
235.484715262368	2.53547099657953	Jitter1	Att	Inval	CueName1	Fem	1	0.516977586825305
238.003151181279	0.5	target	Att	Inval	Face	Fem	1	0.516977586825305
238.520064731274	4.61841448792075	Jitter2	Att	Inval	Face	Fem	1	0.516977586825305
243.156792329697	0.5	cue	Att	Val	CueFace2	Mas	1	0.554289998044624
243.673816592256	3.23596618627562	Jitter1	Att	Val	CueFace2	Mas	1	0.554289998044624
246.892758515973	0.5	target	Att	Val	Face	Mas	1	0.554289998044624
247.40967007371	6.0183518172089	Jitter2	Att	Val	Face	Mas	1	0.554289998044624
253.447351621682	0.5	cue	Att	Val	CueName1	Fem	1	0.627122358444467
253.964430813612	3.93649353669207	Jitter1	Att	Val	CueName1	Fem	1	0.627122358444467
257.883845158374	0.5	target	Att	Val	Word	Fem	1	0.627122358444467
258.400751877773	4.61842302616424	Jitter2	Att	Val	Word	Fem	1	0.627122358444467
263.037485737575	0.5	cue	Att	Val	CueName1	Fem	1	0.625480738715851
263.554532768785	3.23597273226369	Jitter1	Att	Val	CueName1	Fem	1	0.625480738715851
266.773458469839	0.5	target	Att	Val	Word	Fem	1	0.625480738715851
267.290357504817	3.91839886293383	Jitter2	Att	Val	Word	Fem	1	0.625480738715851
271.2266058516	0.5	cue	Att	Inval	CueFace2	Fem	1	0.568906333470295
271.743646621431	2.53541464416958	Jitter1	Att	Inval	CueFace2	Fem	1	0.568906333470295
274.262020495769	0.5	target	Att	Inval	Word	Fem	1	0.568906333470295
274.778986698269	3.9184381388568	Jitter2	Att	Inval	Word	Fem	1	0.568906333470295
278.71521853778	0.5	cue	Att	Inval	CueFace2	Mas	1	0.551233306665381
279.232255607705	3.93646109136353	Jitter1	Att	Inval	CueFace2	Mas	1	0.551233306665381
283.151679629143	0.5	target	Att	Inval	Word	Mas	1	0.551233306665381
283.668586348544	5.31845458920543	Jitter2	Att	Inval	Word	Mas	1	0.551233306665381
289.005818244121	0.5	cue	Att	Inval	CueFace2	Fem	1	0.521204017641139
289.522833114612	3.23590784161024	Jitter1	Att	Inval	CueFace2	Fem	1	0.521204017641139
292.741726085731	0.5	target	Att	Inval	Word	Fem	1	0.521204017641139
293.258696557352	4.61844522559841	Jitter2	Att	Inval	Word	Fem	1	0.521204017641139
297.895428140288	0.5	cue	Att	Inval	CueFace2	Fem	1	0.473991512415523
298.41247630993	5.33746826263632	Jitter1	Att	Inval	CueFace2	Fem	1	0.473991512415523
303.732896402924	0.5	target	Att	Inval	Word	Fem	1	0.473991512415523
304.250128714029	3.21807899184932	Jitter2	Att	Inval	Word	Fem	1	0.473991512415523
307.485525826338	0.5	cue	Att	Val	CueFace2	Fem	1	0.495974644829403
308.002562611655	6.02127972340713	Jitter1	Att	Val	CueFace2	Fem	1	0.495974644829403
314.006805549745	0.5	target	Att	Val	Face	Fem	1	0.495974644829403
314.523693485007	4.61843526431403	Jitter2	Att	Val	Face	Fem	1	0.495974644829403
319.16043929835	0.5	cue	Att	Val	CueFace2	Fem	1	0.534404427591653
319.677477506708	3.2359664708838	Jitter1	Att	Val	CueFace2	Fem	1	0.534404427591653
322.896405769234	0.5	target	Att	Val	Face	Fem	1	0.534404427591653
323.413310211768	5.31844605096194	Jitter2	Att	Val	Face	Fem	1	0.534404427591653
328.750540399698	0.5	cue	Att	Inval	CueName1	Mas	1	0.472237757083349
329.267571492852	3.23596419401838	Jitter1	Att	Inval	CueName1	Mas	1	0.472237757083349
332.486504593717	0.5	target	Att	Inval	Face	Mas	1	0.472237757083349
333.003403913304	2.51842709606171	Jitter2	Att	Inval	Face	Mas	1	0.472237757083349
335.538654765493	0.5	cue	Att	Inval	CueName1	Fem	1	0.487625380555983
336.055686427862	3.93646649891889	Jitter1	Att	Inval	CueName1	Fem	1	0.487625380555983
339.975121264411	0.5	target	Att	Inval	Face	Fem	1	0.487625380555983
340.492024283905	6.01832933316473	Jitter2	Att	Inval	Face	Fem	1	0.487625380555983
346.529675663414	0.5	cue	Att	Inval	CueFace2	Fem	1	0.472487073810044
347.046750586222	3.93653423565411	Jitter1	Att	Inval	CueFace2	Fem	1	0.472487073810044
350.966209899068	0.5	target	Att	Inval	Word	Fem	1	0.472487073810044
351.483100680412	5.31844007419204	Jitter2	Att	Inval	Word	Fem	1	0.472487073810044
356.820270531418	0.5	cue	Att	Inval	CueName1	Fem	1	0.493577959718095
357.33738729162	5.32085910104252	Jitter1	Att	Inval	CueName1	Fem	1	0.493577959718095
362.64112963246	0.5	target	Att	Inval	Face	Fem	1	0.493577959718095
363.158030090479	3.21844158261592	Jitter2	Att	Inval	Face	Fem	1	0.493577959718095
366.393774140106	0.5	cue	Att	Val	CueName1	Mas	0	1.83336108262665
366.910799825706	2.53547782717578	Jitter1	Att	Val	CueName1	Mas	0	1.83336108262665
369.429251967282	0.5	target	Att	Val	Word	Mas	0	1.83336108262665
369.94614360245	3.21843219054608	Jitter2	Att	Val	Word	Mas	0	1.83336108262665
373.181893344239	0.5	cue	Att	Val	CueFace2	Fem	1	0.651944457014906
373.698919314447	5.32078709518464	Jitter1	Att	Val	CueFace2	Fem	1	0.651944457014906
379.002680439424	0.5	target	Att	Val	Face	Fem	1	0.651944457014906
379.519537637007	3.21845069007577	Jitter2	Att	Val	Face	Fem	1	0.651944457014906
382.755321247165	0.5	cue	Att	Inval	CueFace2	Mas	1	0.561352548935247
383.27236429386	6.03793641455741	Jitter1	Att	Inval	CueFace2	Mas	1	0.561352548935247
389.293257661722	0.5	target	Att	Inval	Word	Mas	1	0.561352548935247
389.810163811904	6.01831681040858	Jitter2	Att	Inval	Word	Mas	1	0.561352548935247
395.847885489624	0.5	cue	Att	Val	CueFace2	Mas	1	0.691188503653393
396.364925121023	2.53547782717578	Jitter1	Att	Val	CueFace2	Mas	1	0.691188503653393
398.8833633168	0.5	target	Att	Val	Face	Mas	1	0.691188503653393
399.400263205604	3.21844385947952	Jitter2	Att	Val	Face	Mas	1	0.691188503653393
402.636021485638	0.5	cue	Att	Inval	CueName1	Mas	1	0.679048828225859
403.153066239982	2.53547327344495	Jitter1	Att	Inval	CueName1	Mas	1	0.679048828225859
405.671494759083	0.5	target	Att	Inval	Face	Mas	1	0.679048828225859
406.188388671117	4.61845547149096	Jitter2	Att	Inval	Face	Mas	1	0.679048828225859
410.8251359075	0.5	cue	Att	Inval	CueName1	Fem	1	0.436126107588279
411.342163016141	6.02127146977	Jitter1	Att	Inval	CueName1	Fem	1	0.436126107588279
417.34640737727	0.5	target	Att	Inval	Face	Fem	1	0.436126107588279
417.863424240019	2.51816582579158	Jitter2	Att	Inval	Face	Fem	1	0.436126107588279
420.398532218922	0.5	cue	Att	Val	CueFace2	Fem	1	0.459504104475855
420.915579819348	3.93646450666165	Jitter1	Att	Val	CueFace2	Fem	1	0.459504104475855
424.834996725584	0.5	target	Att	Val	Face	Fem	1	0.459504104475855
425.351942436297	3.91843130826055	Jitter2	Att	Val	Face	Fem	1	0.459504104475855
429.288170860509	0.5	cue	Att	Val	CueFace2	Mas	1	0.516918103723583
429.805209922692	3.93650634405822	Jitter1	Att	Val	CueFace2	Mas	1	0.516918103723583
433.724677204567	0.5	target	Att	Val	Face	Mas	1	0.516918103723583
434.241532125285	3.91836983290523	Jitter2	Att	Val	Face	Mas	1	0.516918103723583
438.177771933824	0.5	cue	Att	Inval	CueName1	Mas	1	0.724425041758877
438.694799042465	4.62028792097408	Jitter1	Att	Inval	CueName1	Mas	1	0.724425041758877
443.298059854798	0.5	target	Att	Inval	Face	Mas	1	0.724425041758877
443.814976535483	3.91832742629049	Jitter2	Att	Inval	Face	Mas	1	0.724425041758877
447.751161699258	0.5	cue	Att	Inval	CueName1	Fem	1	0.439169422385021
448.268200192224	3.23601058514578	Jitter1	Att	Inval	CueName1	Fem	1	0.439169422385021
451.487172284404	0.5	target	Att	Inval	Face	Fem	1	0.439169422385021
452.004203946775	3.91821614450964	Jitter2	Att	Inval	Face	Fem	1	0.439169422385021
455.940227737738	0.5	cue	Att	Inval	CueFace2	Fem	1	0.433091046426853
456.457327706061	4.63704024046092	Jitter1	Att	Inval	CueFace2	Fem	1	0.433091046426853
461.077267978199	0.5	target	Att	Inval	Word	Fem	1	0.433091046426853
461.594350300817	2.51823527017768	Jitter2	Att	Inval	Word	Fem	1	0.433091046426853
464.129341305776	0.5	cue	Att	Inval	CueFace2	Mas	1	1.00943504431052
464.646445258613	2.53555353294178	Jitter1	Att	Inval	CueFace2	Mas	1	1.00943504431052
467.164894838717	0.5	target	Att	Inval	Word	Mas	1	1.00943504431052
467.681762851409	2.51845470304943	Jitter2	Att	Inval	Word	Mas	1	1.00943504431052
