onset	duration	section	btype	validity	stim	gender	accuracy	reaction_time
10.0770610680831	0.5	cue	Exp	Val	CueFace2	Fem	1	0.741325642082984
10.5940560160041	5.33744407094377	Jitter1	Exp	Val	CueFace2	Fem	1	0.741325642082984
15.9145051390269	0.5	target	Exp	Val	Face	Fem	1	0.741325642082984
16.4313925050724	3.91864675662009	Jitter2	Exp	Val	Face	Fem	1	0.741325642082984
20.3676755740476	0.5	cue	Exp	Inval	CueName2	Mas	1	0.764737222731128
20.8846366536004	2.53535886097552	Jitter1	Exp	Inval	CueName2	Mas	1	0.764737222731128
23.4030344350231	0.5	target	Exp	Inval	Face	Mas	1	0.764737222731128
23.9199977914409	3.91838833243264	Jitter2	Exp	Inval	Face	Mas	1	0.764737222731128
27.8562671992254	0.5	cue	Exp	Val	CueName2	Mas	1	0.575512372911817
28.3732937386496	3.2359474021398	Jitter1	Exp	Val	CueName2	Mas	1	0.575512372911817
31.5922146013652	0.5	target	Exp	Val	Word	Mas	1	0.575512372911817
32.1090959906398	4.61838944240435	Jitter2	Exp	Val	Word	Mas	1	0.575512372911817
36.7458352579959	0.5	cue	Exp	Val	CueFace2	Mas	1	0.6490195392023
37.2628373211203	5.32081982511977	Jitter1	Exp	Val	CueFace2	Mas	1	0.6490195392023
42.5666550831156	0.5	target	Exp	Val	Face	Mas	1	0.6490195392023
43.0834929273456	5.3184022213095	Jitter2	Exp	Val	Face	Mas	1	0.6490195392023
48.4206781471896	0.5	cue	Exp	Inval	CueFace2	Fem	1	0.738883988885391
48.9377829538512	3.2360891369915	Jitter1	Exp	Inval	CueFace2	Fem	1	0.738883988885391
52.1567672841811	0.5	target	Exp	Inval	Word	Fem	1	0.738883988885391
52.6735786598545	3.91820134488717	Jitter2	Exp	Inval	Word	Fem	1	0.738883988885391
56.609735078209	0.5	cue	Exp	Val	CueFace2	Fem	1	0.472988553345431
57.1268438693842	5.32088130047691	Jitter1	Exp	Val	CueFace2	Fem	1	0.472988553345431
62.430616378686	0.5	target	Exp	Val	Face	Fem	1	0.472988553345431
62.9474812606888	3.91838520174315	Jitter2	Exp	Val	Face	Fem	1	0.472988553345431
66.8837094002938	0.5	cue	Exp	Val	CueFace2	Mas	1	0.683594304763574
67.4007373627585	4.6203135357066	Jitter1	Exp	Val	CueFace2	Mas	1	0.683594304763574
72.0040229360004	0.5	target	Exp	Val	Face	Mas	1	0.683594304763574
72.5209279477506	2.51834854421509	Jitter2	Exp	Val	Face	Mas	1	0.683594304763574
75.0561406624483	0.5	cue	Exp	Inval	CueFace2	Mas	1	0.699988017997384
75.573170901778	2.53542574388734	Jitter1	Exp	Inval	CueFace2	Mas	1	0.699988017997384
78.0915664063357	0.5	target	Exp	Inval	Word	Mas	1	0.699988017997384
78.6085081325352	5.31839112159219	Jitter2	Exp	Inval	Word	Mas	1	0.699988017997384
83.9457124211244	0.5	cue	Exp	Val	CueName2	Mas	1	0.517001209299906
84.4627594523342	6.03790966139331	Jitter1	Exp	Val	CueName2	Mas	1	0.517001209299906
90.4836220825177	0.5	target	Exp	Val	Word	Mas	1	0.517001209299906
91.0005757622589	3.21853408025891	Jitter2	Exp	Val	Word	Mas	1	0.517001209299906
94.236285089693	0.5	cue	Exp	Val	CueFace2	Fem	1	0.603239182115885
94.7533546049456	3.23600062386095	Jitter1	Exp	Val	CueFace2	Fem	1	0.603239182115885
97.9722857135539	0.5	target	Exp	Val	Face	Fem	1	0.603239182115885
98.4891739334239	5.31858920885497	Jitter2	Exp	Val	Face	Fem	1	0.603239182115885
103.826410098124	0.5	cue	Exp	Val	CueName2	Mas	1	0.51957492067254
104.343566418858	5.3374489092821	Jitter1	Exp	Val	CueName2	Mas	1	0.51957492067254
109.663859007406	0.5	target	Exp	Val	Word	Mas	1	0.51957492067254
110.180740681289	3.91847855321157	Jitter2	Exp	Val	Word	Mas	1	0.51957492067254
114.116991304937	0.5	cue	Exp	Val	CueName2	Fem	1	0.785483163578874
114.634041751444	4.63695315037012	Jitter1	Exp	Val	CueName2	Fem	1	0.785483163578874
119.253944455307	0.5	target	Exp	Val	Word	Fem	1	0.785483163578874
119.770827552231	3.21842279847783	Jitter2	Exp	Val	Word	Fem	1	0.785483163578874
123.006524926123	0.5	cue	Exp	Val	CueFace2	Mas	1	0.717392659330017
123.523604687268	2.53552621055928	Jitter1	Exp	Val	CueFace2	Mas	1	0.717392659330017
126.042051136682	0.5	target	Exp	Val	Face	Mas	1	0.717392659330017
126.558939925769	3.21839149158291	Jitter2	Exp	Val	Face	Mas	1	0.717392659330017
129.794697921194	0.5	cue	Exp	Inval	CueName2	Fem	1	0.684736437212905
130.311732714254	3.23596590166835	Jitter1	Exp	Inval	CueName2	Fem	1	0.684736437212905
133.530663822862	0.5	target	Exp	Inval	Face	Fem	1	0.684736437212905
134.047547204394	6.01843492278431	Jitter2	Exp	Inval	Face	Fem	1	0.684736437212905
140.085275143492	0.5	cue	Exp	Inval	CueFace2	Fem	1	0.705155932528442
140.602307375079	4.63696026557341	Jitter1	Exp	Inval	CueFace2	Fem	1	0.705155932528442
145.222235409066	0.5	target	Exp	Inval	Word	Fem	1	0.705155932528442
145.739113098435	6.01839906215923	Jitter2	Exp	Inval	Word	Fem	1	0.705155932528442
151.776840752925	0.5	cue	Exp	Val	CueName2	Fem	1	0.645523982077975
152.293890914825	4.63697478058839	Jitter1	Exp	Val	CueName2	Fem	1	0.645523982077975
156.913815533514	0.5	target	Exp	Val	Word	Fem	1	0.645523982077975
157.430687815328	2.5183505364721	Jitter2	Exp	Val	Word	Fem	1	0.645523982077975
159.965930129272	0.5	cue	Exp	Val	CueFace2	Mas	1	0.752059353319055
160.482968053022	6.02129139234012	Jitter1	Exp	Val	CueFace2	Mas	1	0.752059353319055
166.487221521612	0.5	target	Exp	Val	Face	Mas	1	0.752059353319055
167.004090672737	6.01841727708006	Jitter2	Exp	Val	Face	Mas	1	0.752059353319055
173.041757136478	0.5	cue	Exp	Val	CueFace2	Mas	1	1.05698338713819
173.558834051542	3.93651630534259	Jitter1	Exp	Val	CueFace2	Mas	1	1.05698338713819
177.47827344182	0.5	target	Exp	Val	Face	Mas	1	1.05698338713819
177.995161092474	3.21825744115085	Jitter2	Exp	Val	Face	Mas	1	1.05698338713819
181.230954379308	0.5	cue	Exp	Val	CueName2	Fem	1	0.662478373339582
181.747974372745	6.03782940189876	Jitter1	Exp	Val	CueName2	Fem	1	0.662478373339582
187.768783781207	0.5	target	Exp	Val	Word	Fem	1	0.662478373339582
188.28574030703	5.31829777012354	Jitter2	Exp	Val	Word	Fem	1	0.662478373339582
193.622979033203	0.5	cue	Exp	Val	CueName2	Mas	1	0.627803994930218
194.140004149587	3.93639819296641	Jitter1	Exp	Val	CueName2	Mas	1	0.627803994930218
198.05937722617	0.5	target	Exp	Val	Word	Mas	1	0.627803994930218
198.576319521585	2.51838867396236	Jitter2	Exp	Val	Word	Mas	1	0.627803994930218
201.111582327315	0.5	cue	Exp	Inval	CueName2	Mas	1	0.610811466178347
201.628635050688	5.32077770311571	Jitter1	Exp	Inval	CueName2	Mas	1	0.610811466178347
206.932360030431	0.5	target	Exp	Inval	Face	Mas	1	0.610811466178347
207.449234873718	5.31829634708311	Jitter2	Exp	Inval	Face	Mas	1	0.610811466178347
212.786469046162	0.5	cue	Exp	Val	CueName2	Fem	1	1.13623309178683
213.303492170288	3.93645682224178	Jitter1	Exp	Val	CueName2	Fem	1	1.13623309178683
217.222925868403	0.5	target	Exp	Val	Word	Fem	1	1.13623309178683
217.739815795922	6.01845399152944	Jitter2	Exp	Val	Word	Fem	1	1.13623309178683
223.777543450413	0.5	cue	Exp	Val	CueFace2	Mas	1	0.601091244514464
224.294594466136	3.93646023753945	Jitter1	Exp	Val	CueFace2	Mas	1	0.601091244514464
228.214003687952	0.5	target	Exp	Val	Face	Mas	1	0.601091244514464
228.730886784876	3.91845863064191	Jitter2	Exp	Val	Face	Mas	1	0.601091244514464
232.667131716361	0.5	cue	Exp	Val	CueFace2	Mas	1	0.531983835396204
233.184188708855	3.23595508655899	Jitter1	Exp	Val	CueFace2	Mas	1	0.531983835396204
236.40308680292	0.5	target	Exp	Val	Face	Mas	1	0.531983835396204
236.919988683981	2.51841912703276	Jitter2	Exp	Val	Face	Mas	1	0.531983835396204
239.455269704631	0.5	cue	Exp	Val	CueFace2	Fem	1	0.830486825062508
239.97227262158	6.02125581632299	Jitter1	Exp	Val	CueFace2	Fem	1	0.830486825062508
245.976525520954	0.5	target	Exp	Val	Face	Fem	1	0.830486825062508
246.493394956687	3.21843845192507	Jitter2	Exp	Val	Face	Fem	1	0.830486825062508
249.729091761363	0.5	cue	Exp	Inval	CueFace2	Fem	1	0.739963222936694
250.246178353104	6.03798593637339	Jitter1	Exp	Inval	CueFace2	Fem	1	0.739963222936694
256.267077697737	0.5	target	Exp	Inval	Word	Fem	1	0.739963222936694
256.783974455851	3.218506757878	Jitter2	Exp	Inval	Word	Fem	1	0.739963222936694
260.019690898488	0.5	cue	Exp	Inval	CueName2	Fem	1	0.633946123110945
260.536760698349	6.02132099158598	Jitter1	Exp	Inval	CueName2	Fem	1	0.633946123110945
266.541011890074	0.5	target	Exp	Inval	Face	Fem	1	0.633946123110945
267.057877625901	4.61844921011289	Jitter2	Exp	Inval	Face	Fem	1	0.633946123110945
271.694621446988	0.5	cue	Exp	Val	CueName2	Fem	1	0.728423786068106
272.211629771491	3.23590101101354	Jitter1	Exp	Val	CueName2	Fem	1	0.728423786068106
275.430522458001	0.5	target	Exp	Val	Word	Fem	1	0.728423786068106
275.947469876363	2.51848999445883	Jitter2	Exp	Val	Word	Fem	1	0.728423786068106
278.482756304568	0.5	cue	Exp	Val	CueName2	Mas	1	0.89673136094234
278.999694330862	2.53543684360466	Jitter1	Exp	Val	CueName2	Mas	1	0.89673136094234
281.518193148173	0.5	target	Exp	Val	Word	Mas	1	0.89673136094234
282.035112959546	3.91844923857388	Jitter2	Exp	Val	Word	Mas	1	0.89673136094234
285.971328291785	0.5	cue	Exp	Inval	CueFace2	Mas	1	0.799021972601622
286.488385853496	3.93653964320947	Jitter1	Exp	Inval	CueFace2	Mas	1	0.799021972601622
290.407867934995	0.5	target	Exp	Inval	Word	Mas	1	0.799021972601622
290.924685287438	4.61846315591174	Jitter2	Exp	Inval	Word	Mas	1	0.799021972601622
295.561425693227	0.5	cue	Exp	Val	CueFace2	Fem	1	0.857964317539881
296.07845849403	2.53549604209684	Jitter1	Exp	Val	CueFace2	Fem	1	0.857964317539881
298.596921735324	0.5	target	Exp	Val	Face	Fem	1	0.857964317539881
299.11378149438	5.31847508099236	Jitter2	Exp	Val	Face	Fem	1	0.857964317539881
304.450954760683	0.5	cue	Exp	Val	CueName2	Mas	1	0.94328385990093
304.968051598317	3.93661051063555	Jitter1	Exp	Val	CueName2	Mas	1	0.94328385990093
308.887565271319	0.5	target	Exp	Val	Word	Mas	1	0.94328385990093
309.404362985801	3.21854347232738	Jitter2	Exp	Val	Word	Mas	1	0.94328385990093
312.640090812764	0.5	cue	Exp	Val	CueName2	Mas	1	0.577222867808359
313.157176266072	5.33747509323075	Jitter1	Exp	Val	CueName2	Mas	1	0.577222867808359
318.477565905995	0.5	target	Exp	Val	Word	Mas	1	0.577222867808359
318.99444871831	4.61851068547003	Jitter2	Exp	Val	Word	Mas	1	0.577222867808359
323.631192824004	0.5	cue	Exp	Val	CueFace2	Mas	1	0.543341692274225
324.148220501861	4.62029190548856	Jitter1	Exp	Val	CueFace2	Mas	1	0.543341692274225
328.751484729493	0.5	target	Exp	Val	Face	Mas	1	0.543341692274225
329.268349611496	4.61854882296075	Jitter2	Exp	Val	Face	Mas	1	0.543341692274225
333.905035372522	0.5	cue	Exp	Val	CueName2	Mas	1	0.804635298865378
334.422104603167	4.63703995585138	Jitter1	Exp	Val	CueName2	Mas	1	0.804635298865378
339.042075328374	0.5	target	Exp	Val	Word	Mas	1	0.804635298865378
339.55893508743	5.31840705964805	Jitter2	Exp	Val	Word	Mas	1	0.804635298865378
344.896190320876	0.5	cue	Exp	Val	CueName2	Mas	1	0.667092725046132
345.41319693773	2.5354502201867	Jitter1	Exp	Val	CueName2	Mas	1	0.667092725046132
347.931640541063	0.5	target	Exp	Val	Word	Mas	1	0.667092725046132
348.448521361121	6.01841670786371	Jitter2	Exp	Val	Word	Mas	1	0.667092725046132
354.486216854893	0.5	cue	Exp	Val	CueName2	Fem	1	0.662422305536438
355.003308000363	6.03800585894305	Jitter1	Exp	Val	CueName2	Fem	1	0.662422305536438
361.024222713836	0.5	target	Exp	Val	Word	Fem	1	0.662422305536438
361.54107507308	5.31839026776788	Jitter2	Exp	Val	Word	Fem	1	0.662422305536438
366.878449272727	0.5	cue	Exp	Val	CueFace2	Fem	1	0.967934624372447
367.395342615543	4.6202597447691	Jitter1	Exp	Val	CueFace2	Fem	1	0.967934624372447
371.998709017496	0.5	target	Exp	Val	Face	Fem	1	0.967934624372447
372.515470302137	2.51850792477126	Jitter2	Exp	Val	Face	Fem	1	0.967934624372447
375.050731684826	0.5	cue	Exp	Val	CueFace2	Mas	1	0.738608772818225
375.567780992901	6.02125980083702	Jitter1	Exp	Val	CueFace2	Mas	1	0.738608772818225
381.571991485663	0.5	target	Exp	Val	Face	Mas	1	0.738608772818225
382.088881413182	6.01847476792364	Jitter2	Exp	Val	Face	Mas	1	0.738608772818225
388.126601952469	0.5	cue	Exp	Val	CueName2	Fem	1	0.812461453385367
388.643640730043	2.53547583491945	Jitter1	Exp	Val	CueName2	Fem	1	0.812461453385367
391.162077787388	0.5	target	Exp	Val	Word	Fem	1	0.812461453385367
391.678967145691	4.61852007753851	Jitter2	Exp	Val	Word	Fem	1	0.812461453385367
396.315732881603	0.5	cue	Exp	Val	CueName2	Fem	1	1.45880083777229
396.832753444256	3.23597785521042	Jitter1	Exp	Val	CueName2	Fem	1	1.45880083777229
400.051710736814	0.5	target	Exp	Val	Word	Fem	1	1.45880083777229
400.568559111544	6.0185669809598	Jitter2	Exp	Val	Word	Fem	1	1.45880083777229
406.606285058386	0.5	cue	Exp	Val	CueName2	Fem	1	0.674746122427678
407.123322128311	5.33747822391979	Jitter1	Exp	Val	CueName2	Fem	1	0.674746122427678
412.443763282306	0.5	target	Exp	Val	Word	Fem	1	0.674746122427678
412.960628448917	3.91850331411979	Jitter2	Exp	Val	Word	Fem	1	0.674746122427678
416.896867403631	0.5	cue	Exp	Inval	CueName2	Fem	1	0.801128072807387
417.413897358353	3.93645226851186	Jitter1	Exp	Inval	CueName2	Fem	1	0.801128072807387
421.333319672143	0.5	target	Exp	Inval	Face	Fem	1	0.801128072807387
421.850209315054	2.51859814555019	Jitter2	Exp	Inval	Face	Fem	1	0.801128072807387
424.385471836175	0.5	cue	Exp	Val	CueFace2	Fem	1	0.880539434876027
424.902498660207	3.93646365283757	Jitter1	Exp	Val	CueFace2	Fem	1	0.880539434876027
428.821935489013	0.5	target	Exp	Val	Face	Fem	1	0.880539434876027
429.33881801672	6.01854136622705	Jitter2	Exp	Val	Face	Fem	1	0.880539434876027
435.376547948075	0.5	cue	Exp	Val	CueFace2	Fem	1	0.538435332620338
435.893579041229	2.53546331216148	Jitter1	Exp	Val	CueFace2	Fem	1	0.538435332620338
438.412011260236	0.5	target	Exp	Val	Face	Fem	1	0.538435332620338
438.92890346462	4.61844237951755	Jitter2	Exp	Val	Face	Fem	1	0.538435332620338
443.56564984718	0.5	cue	Exp	Val	CueFace2	Fem	1	0.672817617698911
444.082728185284	3.2359604941139	Jitter1	Exp	Val	CueFace2	Fem	1	0.672817617698911
447.301610341294	0.5	target	Exp	Val	Face	Fem	1	0.672817617698911
447.818473515648	4.61848962446811	Jitter2	Exp	Val	Face	Fem	1	0.672817617698911
452.455241813033	0.5	cue	Exp	Inval	CueName2	Mas	1	0.766784693660611
452.972226515062	4.62028792097499	Jitter1	Exp	Inval	CueName2	Mas	1	0.766784693660611
457.575529734008	0.5	target	Exp	Inval	Face	Mas	1	0.766784693660611
458.092437591839	3.21833627760452	Jitter2	Exp	Inval	Face	Mas	1	0.766784693660611
461.328148626922	0.5	cue	Exp	Inval	CueFace2	Mas	1	0.904684450690638
461.845202204119	5.33747793931161	Jitter1	Exp	Inval	CueFace2	Mas	1	0.904684450690638
467.165626566234	0.5	target	Exp	Inval	Word	Mas	1	0.904684450690638
467.682482909993	2.51844161107601	Jitter2	Exp	Inval	Word	Mas	1	0.904684450690638
