onset	duration	section	btype	validity	stim	gender	accuracy	reaction_time
10.0702735332525	0.5	cue	Att	Inval	CueFace1	Fem	1	1.34445398511161
10.5873301925931	4.63696642174546	Jitter1	Att	Inval	CueFace1	Fem	1	1.34445398511161
15.2072399549979	0.5	target	Att	Inval	Word	Fem	1	1.34445398511161
15.7241090581119	6.0202108200283	Jitter2	Att	Inval	Word	Fem	1	1.34445398511161
21.7618192441769	0.5	cue	Att	Val	CueFace1	Fem	1	0.748638794309954
22.2788989567125	6.02124067164186	Jitter1	Att	Val	CueFace1	Fem	1	0.748638794309954
28.2830599158187	0.5	target	Att	Val	Face	Fem	1	0.748638794309954
28.7999654486703	2.51826794811859	Jitter2	Att	Val	Face	Fem	1	0.748638794309954
31.3351626943513	0.5	cue	Att	Inval	CueName1	Mas	1	0.997026422657655
31.8522233381991	2.5355027716505	Jitter1	Att	Inval	CueName1	Mas	1	0.997026422657655
34.3706654660018	0.5	target	Att	Inval	Face	Mas	1	0.997026422657655
34.8875550608427	6.01840071743936	Jitter2	Att	Inval	Face	Mas	1	0.997026422657655
40.9085721734264	0.5	cue	Att	Inval	CueFace1	Fem	1	0.867096632438916
41.4256109025082	3.23595982255574	Jitter1	Att	Inval	CueFace1	Fem	1	0.867096632438916
44.6445319959821	0.5	target	Att	Inval	Word	Fem	1	0.867096632438916
45.1614287060038	3.91839454146248	Jitter2	Att	Inval	Word	Fem	1	0.867096632438916
49.0976547502505	0.5	cue	Att	Val	CueName1	Mas	1	0.797943029014277
49.6147171017401	3.23595555344218	Jitter1	Att	Val	CueName1	Mas	1	0.797943029014277
52.8336103036927	0.5	target	Att	Val	Word	Mas	1	0.797943029014277
53.3505084367571	3.91841503318574	Jitter2	Att	Val	Word	Mas	1	0.797943029014277
57.2867330579647	0.5	cue	Att	Val	CueName1	Fem	1	1.1127366616638
57.8037655256849	3.2359743375273	Jitter1	Att	Val	CueName1	Fem	1	1.1127366616638
61.022707395492	0.5	target	Att	Val	Word	Fem	1	1.1127366616638
61.5396109360918	6.01836912602448	Jitter2	Att	Val	Word	Fem	1	1.1127366616638
67.5606382945407	0.5	cue	Att	Val	CueName1	Fem	1	0.922311022870417
68.077584810846	3.93641658885099	Jitter1	Att	Val	CueName1	Fem	1	0.922311022870417
71.9970548833917	0.5	target	Att	Val	Word	Fem	1	0.922311022870417
72.5139453320553	2.51839573680991	Jitter2	Att	Val	Word	Fem	1	0.922311022870417
75.0492228370022	0.5	cue	Att	Val	CueName1	Mas	1	0.896710024695494
75.5662479049315	5.33742831097334	Jitter1	Att	Val	CueName1	Mas	1	0.896710024695494
80.8866511479755	0.5	target	Att	Val	Word	Mas	1	0.896710024695494
81.4035239509867	2.5184714423558	Jitter2	Att	Val	Word	Mas	1	0.896710024695494
83.9388524006463	0.5	cue	Att	Val	CueName1	Fem	1	0.8951392768613
84.4558085936042	5.33736598196992	Jitter1	Att	Val	CueName1	Fem	1	0.8951392768613
89.7762183826162	0.5	target	Att	Val	Word	Fem	1	0.8951392768613
90.2930943163046	3.91839795674605	Jitter2	Att	Val	Word	Fem	1	0.8951392768613
94.2293186529059	0.5	cue	Att	Val	CueFace1	Mas	1	0.878197171969077
94.7463474207289	3.91979552102202	Jitter1	Att	Val	CueFace1	Mas	1	0.878197171969077
98.649114173928	0.5	target	Att	Val	Face	Mas	1	0.878197171969077
99.1659878307582	6.01836969524084	Jitter2	Att	Val	Face	Mas	1	0.878197171969077
105.187009212452	0.5	cue	Att	Val	CueFace1	Fem	1	0.784723587941699
105.704046518498	2.53546321123213	Jitter1	Att	Val	CueFace1	Fem	1	0.784723587941699
108.222472423684	0.5	target	Att	Val	Face	Fem	1	0.784723587941699
108.739369702922	5.318380538778	Jitter2	Att	Val	Face	Fem	1	0.784723587941699
114.076543148036	0.5	cue	Att	Val	CueFace1	Mas	1	0.841255710292899
114.59360350727	6.02130869278699	Jitter1	Att	Val	CueFace1	Mas	1	0.841255710292899
120.597851840823	0.5	target	Att	Val	Face	Mas	1	0.841255710292899
121.114707852001	3.91839767213969	Jitter2	Att	Val	Face	Mas	1	0.841255710292899
125.050946703577	0.5	cue	Att	Val	CueFace1	Mas	1	0.816653968435276
125.567977463652	2.53545751908314	Jitter1	Att	Val	CueFace1	Mas	1	0.816653968435276
128.08640422266	0.5	target	Att	Val	Face	Mas	1	0.816653968435276
128.603305771008	4.6183734520564	Jitter2	Att	Val	Face	Mas	1	0.816653968435276
133.24004749527	0.5	cue	Att	Val	CueFace1	Mas	1	0.766657568718074
133.757049794611	4.62026224857254	Jitter1	Att	Val	CueFace1	Mas	1	0.766657568718074
138.360309743843	0.5	target	Att	Val	Face	Mas	1	0.766657568718074
138.877179416173	3.21841676929034	Jitter2	Att	Val	Face	Mas	1	0.766657568718074
142.112940725114	0.5	cue	Att	Inval	CueFace1	Fem	1	0.850696419896849
142.629946155139	2.53538608264716	Jitter1	Att	Inval	CueFace1	Fem	1	0.850696419896849
145.148326807761	0.5	target	Att	Inval	Word	Fem	1	0.850696419896849
145.665276454747	3.21836867065213	Jitter2	Att	Inval	Word	Fem	1	0.850696419896849
148.901003326206	0.5	cue	Att	Inval	CueFace1	Fem	1	0.813500234657113
149.418016156018	3.9364020738758	Jitter1	Att	Inval	CueFace1	Fem	1	0.813500234657113
153.337405400081	0.5	target	Att	Inval	Word	Fem	1	0.813500234657113
153.854353624032	2.51830921618239	Jitter2	Att	Inval	Word	Fem	1	0.813500234657113
156.389667843327	0.5	cue	Att	Inval	CueName1	Mas	1	0.800014401131193
156.906576222253	6.02118887310644	Jitter1	Att	Inval	CueName1	Mas	1	0.800014401131193
162.910856716433	0.5	target	Att	Inval	Face	Mas	1	0.800014401131193
163.427755703317	4.61835609101036	Jitter2	Att	Inval	Face	Mas	1	0.800014401131193
168.064453598046	0.5	cue	Att	Inval	CueFace1	Mas	1	0.736913257096603
168.581472120008	5.33744054908675	Jitter1	Att	Inval	CueFace1	Mas	1	0.736913257096603
173.901894147133	0.5	target	Att	Inval	Word	Mas	1	0.736913257096603
174.418782034332	5.31823908893784	Jitter2	Att	Inval	Word	Mas	1	0.736913257096603
179.755992763003	0.5	cue	Att	Inval	CueName1	Mas	1	0.781993349864933
180.27302010779	5.32075402157352	Jitter1	Att	Inval	CueName1	Mas	1	0.781993349864933
185.576746784576	0.5	target	Att	Inval	Face	Mas	1	0.781993349864933
186.093639510098	3.21832711798197	Jitter2	Att	Inval	Face	Mas	1	0.781993349864933
189.329371789096	0.5	cue	Att	Val	CueFace1	Fem	1	0.677331567250803
189.846375511472	3.23598401417257	Jitter1	Att	Val	CueFace1	Fem	1	0.677331567250803
193.065355803268	0.5	target	Att	Val	Face	Fem	1	0.677331567250803
193.582239990574	4.61836036011664	Jitter2	Att	Val	Face	Fem	1	0.677331567250803
198.218876410119	0.5	cue	Att	Inval	CueName1	Fem	1	1.27537665645286
198.73593762318	4.62033112354766	Jitter1	Att	Inval	CueName1	Fem	1	1.27537665645286
203.339207533667	0.5	target	Att	Inval	Face	Fem	1	1.27537665645286
203.856110220448	5.31825844223567	Jitter2	Att	Inval	Face	Fem	1	1.27537665645286
209.193338025558	0.5	cue	Att	Inval	CueName1	Fem	1	0.808449023839785
209.710331217466	5.32075402157352	Jitter1	Att	Inval	CueName1	Fem	1	0.808449023839785
215.014092047131	0.5	target	Att	Inval	Face	Fem	1	0.808449023839785
215.53095090438	4.61840874336485	Jitter2	Att	Inval	Face	Fem	1	0.808449023839785
220.167676406021	0.5	cue	Att	Val	CueName1	Fem	1	1.12580696849545
220.684705458454	4.63693767640507	Jitter1	Att	Val	CueName1	Fem	1	1.12580696849545
225.304614082426	0.5	target	Att	Val	Word	Fem	1	1.12580696849545
225.821512500093	5.31835805479932	Jitter2	Att	Val	Word	Fem	1	1.12580696849545
231.158654353792	0.5	cue	Att	Val	CueFace1	Mas	1	0.943720324350579
231.675721258998	3.23601816705559	Jitter1	Att	Val	CueFace1	Mas	1	0.943720324350579
234.894672520848	0.5	target	Att	Val	Face	Mas	1	0.943720324350579
235.411576630664	2.51837097597308	Jitter2	Att	Val	Face	Mas	1	0.943720324350579
237.946808313834	0.5	cue	Att	Val	CueName1	Mas	1	0.793566052947426
238.463877780505	6.03795537527913	Jitter1	Att	Val	CueName1	Mas	1	0.793566052947426
244.484763689114	0.5	target	Att	Val	Word	Mas	1	0.793566052947426
245.001636207515	4.61837459048547	Jitter2	Att	Val	Word	Mas	1	0.793566052947426
249.638287711252	0.5	cue	Att	Inval	CueName1	Mas	1	1.32415806749486
250.155351485777	3.91986012688358	Jitter1	Att	Inval	CueName1	Mas	1	1.32415806749486
254.058147838135	0.5	target	Att	Inval	Face	Mas	1	1.32415806749486
254.575018648895	3.91836664994116	Jitter2	Att	Inval	Face	Mas	1	1.32415806749486
258.511241847067	0.5	cue	Att	Inval	CueFace1	Fem	1	1.02899579435689
259.028274314784	6.03794968313014	Jitter1	Att	Inval	CueFace1	Fem	1	1.02899579435689
265.049191530197	0.5	target	Att	Inval	Word	Fem	1	1.02899579435689
265.566063479386	4.61825875530485	Jitter2	Att	Inval	Word	Fem	1	1.02899579435689
270.202779304378	0.5	cue	Att	Inval	CueName1	Mas	1	0.659125805828808
270.71980921063	4.62026566386339	Jitter1	Att	Inval	CueName1	Mas	1	0.659125805828808
275.323044968241	0.5	target	Att	Inval	Face	Mas	1	0.659125805828808
275.839939116799	2.51841793618223	Jitter2	Att	Inval	Face	Mas	1	0.659125805828808
278.375181899657	0.5	cue	Att	Inval	CueFace1	Mas	1	0.725933106463344
278.89217765303	4.63694962990849	Jitter1	Att	Inval	CueFace1	Mas	1	0.725933106463344
283.512131529566	0.5	target	Att	Inval	Word	Mas	1	0.725933106463344
284.02903364713	3.21838460866275	Jitter2	Att	Inval	Word	Mas	1	0.725933106463344
287.264740026858	0.5	cue	Att	Inval	CueName1	Mas	1	0.893322628304304
287.781810631961	3.23596039176846	Jitter1	Att	Inval	CueName1	Mas	1	0.893322628304304
291.000700418626	0.5	target	Att	Inval	Face	Mas	1	0.893322628304304
291.517604528442	5.31838310024614	Jitter2	Att	Inval	Face	Mas	1	0.893322628304304
296.854837741092	0.5	cue	Att	Inval	CueName1	Fem	1	0.877913418466051
297.371840325042	6.02124864064535	Jitter1	Att	Inval	CueName1	Fem	1	0.877913418466051
303.376086381737	0.5	target	Att	Inval	Face	Fem	1	0.877913418466051
303.892962030819	3.91840336428504	Jitter2	Att	Inval	Face	Fem	1	0.877913418466051
307.829209705222	0.5	cue	Att	Val	CueName1	Mas	1	0.781390266940434
308.346145406449	2.53545609604771	Jitter1	Att	Val	CueName1	Mas	1	0.781390266940434
310.864665801269	0.5	target	Att	Val	Word	Mas	1	0.781390266940434
311.381530635274	5.31836516998374	Jitter2	Att	Val	Word	Mas	1	0.781390266940434
316.718695826774	0.5	cue	Att	Inval	CueFace1	Mas	1	0.855163047268434
317.2357712702	3.23600564433218	Jitter1	Att	Inval	CueFace1	Mas	1	0.855163047268434
320.454701471106	0.5	target	Att	Inval	Word	Mas	1	0.855163047268434
320.971603019454	2.51836073010782	Jitter2	Att	Inval	Word	Mas	1	0.855163047268434
323.506846656132	0.5	cue	Att	Val	CueFace1	Fem	1	1.24719683129297
324.023881685316	3.91977047557884	Jitter1	Att	Val	CueFace1	Fem	1	1.24719683129297
327.92661713171	0.5	target	Att	Val	Face	Fem	1	1.24719683129297
328.443514980161	6.01832643492889	Jitter2	Att	Val	Face	Fem	1	1.24719683129297
334.464540630968	0.5	cue	Att	Inval	CueName1	Fem	1	1.24177107723517
334.981589605912	2.53547772620368	Jitter1	Att	Inval	CueName1	Fem	1	1.24177107723517
337.500018357172	0.5	target	Att	Inval	Face	Fem	1	1.24177107723517
338.016895713896	2.5184219206858	Jitter2	Att	Inval	Face	Fem	1	1.24177107723517
340.552139065967	0.5	cue	Att	Val	CueFace1	Fem	1	0.573339750280866
341.0691681184	4.62026395621797	Jitter1	Att	Val	CueFace1	Fem	1	0.573339750280866
345.672403022185	0.5	target	Att	Val	Face	Fem	1	0.573339750280866
346.189295178494	3.91840905643403	Jitter2	Att	Val	Face	Fem	1	0.573339750280866
350.12558070567	0.5	cue	Att	Val	CueName1	Fem	1	1.15670991654406
350.642574182188	2.53540486672864	Jitter1	Att	Val	CueName1	Fem	1	1.15670991654406
353.160985572398	0.5	target	Att	Val	Word	Fem	1	1.15670991654406
353.677883990069	4.61832421498912	Jitter2	Att	Val	Word	Fem	1	1.15670991654406
358.314600384274	0.5	cue	Att	Val	CueName1	Mas	1	0.814634394850145
358.831657612831	3.93644732644316	Jitter1	Att	Val	CueName1	Mas	1	0.814634394850145
362.751047710717	0.5	target	Att	Val	Word	Mas	1	0.814634394850145
363.267936167129	3.21828613452817	Jitter2	Att	Val	Word	Mas	1	0.814634394850145
366.503704875864	0.5	cue	Att	Val	CueFace1	Mas	1	0.697142798595451
367.020745312588	5.32072413780043	Jitter1	Att	Val	CueFace1	Mas	1	0.697142798595451
372.324429013664	0.5	target	Att	Val	Face	Mas	1	0.697142798595451
372.841336254161	5.31842465291629	Jitter2	Att	Val	Face	Mas	1	0.697142798595451
378.178537875399	0.5	cue	Att	Val	CueName1	Mas	1	0.770059764690814
378.695533344166	4.63688388561786	Jitter1	Att	Val	CueName1	Mas	1	0.770059764690814
383.315421761017	0.5	target	Att	Val	Word	Mas	1	0.770059764690814
383.832371692613	6.01838107953154	Jitter2	Att	Val	Word	Mas	1	0.770059764690814
389.870101801193	0.5	cue	Att	Inval	CueName1	Fem	1	1.28355570178246
390.387115200221	3.91974059180575	Jitter1	Att	Inval	CueName1	Fem	1	1.28355570178246
394.289842392998	0.5	target	Att	Inval	Face	Fem	1	1.28355570178246
394.806737964595	3.21836667840398	Jitter2	Att	Inval	Face	Fem	1	1.28355570178246
398.042470243592	0.5	cue	Att	Inval	CueFace1	Mas	1	1.2634666936865
398.559526333716	2.53543531971081	Jitter1	Att	Inval	CueFace1	Mas	1	1.2634666936865
401.077905563303	0.5	target	Att	Inval	Word	Mas	1	1.2634666936865
401.594834718562	4.61842553519818	Jitter2	Att	Inval	Word	Mas	1	1.2634666936865
406.231559081774	0.5	cue	Att	Inval	CueName1	Fem	1	1.16580625128699
406.74858471892	3.2359714914528	Jitter1	Att	Inval	CueName1	Fem	1	1.16580625128699
409.967530573227	0.5	target	Att	Inval	Face	Fem	1	1.16580625128699
410.484405083884	6.0184286089534	Jitter2	Att	Inval	Face	Fem	1	1.16580625128699
416.505458056989	0.5	cue	Att	Inval	CueFace1	Mas	1	0.687335230144527
417.022459787117	3.93646639513463	Jitter1	Att	Inval	CueFace1	Mas	1	0.687335230144527
420.941924452123	0.5	target	Att	Inval	Word	Mas	1	0.687335230144527
421.458771355865	3.91842698669279	Jitter2	Att	Inval	Word	Mas	1	0.687335230144527
425.395005938331	0.5	cue	Att	Val	CueFace1	Fem	1	0.965444686138653
425.912030437044	5.32077166722593	Jitter1	Att	Val	CueFace1	Fem	1	0.965444686138653
431.215777605557	0.5	target	Att	Val	Face	Fem	1	0.965444686138653
431.732646139455	3.21838318562732	Jitter2	Att	Val	Face	Fem	1	0.965444686138653
434.968378703059	0.5	cue	Att	Inval	CueFace1	Mas	1	0.802812091144006
435.485363925964	6.03792349925789	Jitter1	Att	Inval	CueFace1	Mas	1	0.802812091144006
441.506302202317	0.5	target	Att	Inval	Word	Mas	1	0.802812091144006
442.023198343129	6.01838620246417	Jitter2	Att	Inval	Word	Mas	1	0.802812091144006
448.044270954142	0.5	cue	Att	Inval	CueFace1	Fem	1	0.987488661958196
448.561278945632	5.33738334301233	Jitter1	Att	Inval	CueFace1	Fem	1	0.987488661958196
453.881654297154	0.5	target	Att	Inval	Word	Fem	1	0.987488661958196
454.398547876499	5.31840216893761	Jitter2	Att	Inval	Word	Fem	1	0.987488661958196
459.735726729152	0.5	cue	Att	Val	CueName1	Fem	1	0.707301857088169
460.25278708839	6.0379539522437	Jitter1	Att	Val	CueName1	Fem	1	0.707301857088169
466.273680681395	0.5	target	Att	Val	Word	Fem	1	0.707301857088169
466.790574260736	3.21837407819476	Jitter2	Att	Val	Word	Fem	1	0.707301857088169
