onset	duration	section	btype	validity	stim	gender	accuracy	reaction_time
10.0519855203165	0.5	cue	Att	Val	CueFace2	Mas	1	0.69991231248423
10.5689895273063	3.2359279465345	Jitter1	Att	Val	CueFace2	Mas	1	0.69991231248423
13.787913466851	0.5	target	Att	Val	Face	Mas	1	0.69991231248423
14.3048155844153	2.51840399042339	Jitter2	Att	Val	Face	Mas	1	0.69991231248423
16.8400629209864	0.5	cue	Att	Val	CueName2	Mas	1	0.756172065619467
17.3570390364584	2.53545666526406	Jitter1	Att	Val	CueName2	Mas	1	0.756172065619467
19.8755195862504	0.5	target	Att	Val	Word	Mas	1	0.756172065619467
20.3924421955417	3.21840140049608	Jitter2	Att	Val	Word	Mas	1	0.756172065619467
23.6281053149578	0.5	cue	Att	Inval	CueFace2	Mas	1	0.775073122738831
24.1451542899013	3.9364430573296	Jitter1	Att	Inval	CueFace2	Mas	1	0.775073122738831
28.0645483722874	0.5	target	Att	Inval	Word	Mas	1	0.775073122738831
28.5814983038836	2.51840598267154	Jitter2	Att	Inval	Word	Mas	1	0.775073122738831
31.1167368176284	0.5	cue	Att	Val	CueFace2	Fem	1	0.713650023495575
31.6337357016855	6.02125091750349	Jitter1	Att	Val	CueFace2	Fem	1	0.713650023495575
37.6379877351319	0.5	target	Att	Val	Face	Fem	1	0.713650023495575
38.1548796068309	3.2183646861522	Jitter2	Att	Val	Face	Fem	1	0.713650023495575
41.3906295314846	0.5	cue	Att	Inval	CueFace2	Fem	1	0.645428224448551
41.9076631376302	2.5354819953136	Jitter1	Att	Inval	CueFace2	Fem	1	0.645428224448551
44.4261115267982	0.5	target	Att	Inval	Word	Fem	1	0.645428224448551
44.942994575671	3.91827045266473	Jitter2	Att	Inval	Word	Fem	1	0.645428224448551
48.8792197660914	0.5	cue	Att	Val	CueFace2	Fem	1	0.796837898764352
49.3962061274251	2.53544243489887	Jitter1	Att	Val	CueFace2	Fem	1	0.796837898764352
51.9146622009903	0.5	target	Att	Val	Face	Fem	1	0.796837898764352
52.4315634647319	2.51839915209712	Jitter2	Att	Val	Face	Fem	1	0.796837898764352
54.9668281623526	0.5	cue	Att	Inval	CueName2	Fem	1	0.583434487518389
55.4837846399132	6.0212275797021	Jitter1	Att	Inval	CueName2	Fem	1	0.583434487518389
61.4880557420547	0.5	target	Att	Inval	Face	Fem	1	0.583434487518389
62.0049464753247	5.31837598506172	Jitter2	Att	Inval	Face	Fem	1	0.583434487518389
67.3421113822151	0.5	cue	Att	Inval	CueFace2	Fem	1	0.576307920080581
67.859217563233	4.63700825902197	Jitter1	Att	Inval	CueFace2	Fem	1	0.576307920080581
72.479119641237	0.5	target	Att	Inval	Word	Fem	1	0.576307920080581
72.9959913058156	5.31840188432761	Jitter2	Att	Inval	Word	Fem	1	0.576307920080581
78.3332242338583	0.5	cue	Att	Val	CueFace2	Fem	1	0.62133906039162
78.8502256793799	5.32076170597065	Jitter1	Att	Val	CueFace2	Fem	1	0.62133906039162
84.153985939829	0.5	target	Att	Val	Face	Fem	1	0.62133906039162
84.6708479277622	6.01843913942503	Jitter2	Att	Val	Face	Fem	1	0.62133906039162
90.691899762438	0.5	cue	Att	Inval	CueFace2	Fem	1	0.817385978476523
91.2089006387432	6.03792264543881	Jitter1	Att	Inval	CueFace2	Fem	1	0.817385978476523
97.2298224078768	0.5	target	Att	Inval	Word	Fem	1	0.817385978476523
97.7466889495227	3.21837151672662	Jitter2	Att	Inval	Word	Fem	1	0.817385978476523
100.9824553814	0.5	cue	Att	Inval	CueName2	Mas	1	1.27726901055939
101.499479310896	2.53551358672485	Jitter1	Att	Inval	CueName2	Mas	1	1.27726901055939
104.017968968124	0.5	target	Att	Inval	Face	Mas	1	1.27726901055939
104.534785418884	3.91835782711496	Jitter2	Att	Inval	Face	Mas	1	1.27726901055939
108.470975033393	0.5	cue	Att	Inval	CueFace2	Fem	1	0.560185768892552
108.988051615248	3.2359919831797	Jitter1	Att	Inval	CueFace2	Fem	1	0.560185768892552
112.206967016573	0.5	target	Att	Inval	Word	Fem	1	0.560185768892552
112.723863726598	4.61836889834012	Jitter2	Att	Inval	Word	Fem	1	0.560185768892552
117.360575851697	0.5	cue	Att	Val	CueName2	Fem	1	0.628604516205087
117.87760860402	6.03792463768696	Jitter1	Att	Val	CueName2	Fem	1	0.628604516205087
123.898500489384	0.5	target	Att	Val	Word	Fem	1	0.628604516205087
124.415397768622	3.21836838604577	Jitter2	Att	Val	Word	Fem	1	0.628604516205087
127.651129478403	0.5	cue	Att	Val	CueFace2	Mas	1	0.584087092120171
128.168161946123	3.91980349002552	Jitter1	Att	Val	CueFace2	Mas	1	0.584087092120171
132.070932968429	0.5	target	Att	Val	Face	Mas	1	0.584087092120171
132.587800933114	3.21839286227623	Jitter2	Att	Val	Face	Mas	1	0.584087092120171
135.82349706698	0.5	cue	Att	Val	CueFace2	Fem	1	1.43947697142357
136.340524696374	3.23598799867978	Jitter1	Att	Val	CueFace2	Fem	1	1.43947697142357
139.55948506566	0.5	target	Att	Val	Face	Fem	1	1.43947697142357
140.076384906362	4.61836861373376	Jitter2	Att	Val	Face	Fem	1	1.43947697142357
144.713103577429	0.5	cue	Att	Inval	CueName2	Mas	1	0.705009629687993
145.230163652061	5.32078333612662	Jitter1	Att	Inval	CueName2	Mas	1	0.705009629687993
150.533886913556	0.5	target	Att	Inval	Face	Mas	1	0.705009629687993
151.050752601383	5.31842835280986	Jitter2	Att	Inval	Face	Mas	1	0.705009629687993
156.387955930262	0.5	cue	Att	Inval	CueName2	Fem	1	0.90694080423782
156.904992382486	3.23595669187489	Jitter1	Att	Inval	CueName2	Fem	1	0.90694080423782
160.123912622137	0.5	target	Att	Inval	Face	Fem	1	0.90694080423782
160.640813316662	3.91837917266457	Jitter2	Att	Inval	Face	Fem	1	0.90694080423782
164.577041353161	0.5	cue	Att	Inval	CueName2	Mas	1	0.837838999341329
165.094079513026	3.23589749354869	Jitter1	Att	Inval	CueName2	Mas	1	0.837838999341329
168.31293884671	0.5	target	Att	Inval	Face	Mas	1	0.837838999341329
168.829901301026	4.61839821289323	Jitter2	Att	Inval	Face	Mas	1	0.837838999341329
173.466610295443	0.5	cue	Att	Val	CueName2	Mas	0	1.26270536908851
173.983610317926	5.33741607285629	Jitter1	Att	Val	CueName2	Mas	0	1.26270536908851
179.3040263683	0.5	target	Att	Val	Word	Mas	0	1.26270536908851
179.8209375933	5.31840330736304	Jitter2	Att	Val	Word	Mas	0	1.26270536908851
185.158143768254	0.5	cue	Att	Val	CueName2	Fem	1	0.813140490998194
185.675175382148	2.53548626442353	Jitter1	Att	Val	CueName2	Fem	1	0.813140490998194
188.193630032678	0.5	target	Att	Val	Word	Fem	1	0.813140490998194
188.710508243224	5.31839363071776	Jitter2	Att	Val	Word	Fem	1	0.813140490998194
194.047711572108	0.5	cue	Att	Val	CueFace2	Fem	1	0.819064877094206
194.564742616789	3.91980149777373	Jitter1	Att	Val	CueFace2	Fem	1	0.819064877094206
198.467513069882	0.5	target	Att	Val	Face	Fem	1	0.819064877094206
198.984394980325	3.91835697329225	Jitter2	Att	Val	Face	Fem	1	0.819064877094206
202.920630701217	0.5	cue	Att	Inval	CueFace2	Fem	1	0.552536947008775
203.437633000562	5.33740753464008	Jitter1	Att	Inval	CueFace2	Fem	1	0.552536947008775
208.758038235857	0.5	target	Att	Inval	Word	Fem	1	0.552536947008775
209.274934945883	2.51841395167867	Jitter2	Att	Inval	Word	Fem	1	0.552536947008775
211.810084092926	0.5	cue	Att	Inval	CueFace2	Mas	1	0.772465835023468
212.327172343681	3.2360190208783	Jitter1	Att	Inval	CueFace2	Mas	1	0.772465835023468
215.546103113804	0.5	target	Att	Inval	Word	Mas	1	0.772465835023468
216.063032553669	3.91834558900155	Jitter2	Att	Inval	Word	Mas	1	0.772465835023468
219.999262013203	0.5	cue	Att	Val	CueFace2	Mas	1	0.58198242094295
220.516322941658	6.0212688477659	Jitter1	Att	Val	CueFace2	Mas	1	0.58198242094295
226.520530860969	0.5	target	Att	Val	Face	Mas	1	0.58198242094295
227.037399110261	3.91840080282054	Jitter2	Att	Val	Face	Mas	1	0.58198242094295
230.973618039323	0.5	cue	Att	Val	CueName2	Fem	1	0.90033791427777
231.490619769451	3.93645273398215	Jitter1	Att	Val	CueName2	Fem	1	0.90033791427777
235.410070773305	0.5	target	Att	Val	Word	Fem	1	0.90033791427777
235.926968337149	6.0184084018365	Jitter2	Att	Val	Word	Fem	1	0.90033791427777
241.948003379996	0.5	cue	Att	Val	CueFace2	Mas	1	0.914126854608185
242.465054347191	4.62027107140239	Jitter1	Att	Val	CueFace2	Mas	1	0.914126854608185
247.068274451398	0.5	target	Att	Val	Face	Mas	1	0.914126854608185
247.585180553466	4.61833702231888	Jitter2	Att	Val	Face	Mas	1	0.914126854608185
252.22186421783	0.5	cue	Att	Inval	CueName2	Fem	1	0.716948337791109
252.73889355487	2.53546036515763	Jitter1	Att	Inval	CueName2	Fem	1	0.716948337791109
255.257324582988	0.5	target	Att	Inval	Face	Fem	1	0.716948337791109
255.774225277513	3.21836326311313	Jitter2	Att	Inval	Face	Fem	1	0.716948337791109
259.009894942898	0.5	cue	Att	Inval	CueName2	Mas	1	0.580036560655572
259.526991447266	4.62032884668952	Jitter1	Att	Inval	CueName2	Mas	1	0.580036560655572
264.130223789587	0.5	target	Att	Inval	Face	Mas	1	0.580036560655572
264.647143268197	3.21833651002453	Jitter2	Att	Inval	Face	Mas	1	0.580036560655572
267.882814072011	0.5	cue	Att	Val	CueFace2	Fem	1	0.659068599758029
268.399872723603	4.62029981674277	Jitter1	Att	Val	CueFace2	Fem	1	0.659068599758029
273.003113888753	0.5	target	Att	Val	Face	Fem	1	0.659068599758029
273.520010029562	5.31840074589854	Jitter2	Att	Val	Face	Fem	1	0.659068599758029
278.8572116508	0.5	cue	Att	Val	CueName2	Mas	1	0.802892919626174
279.374244403127	6.03800091244921	Jitter1	Att	Val	CueName2	Mas	1	0.802892919626174
285.39521256325	0.5	target	Att	Val	Word	Mas	1	0.802892919626174
285.912079674115	3.91834758124969	Jitter2	Att	Val	Word	Mas	1	0.802892919626174
289.848199844433	0.5	cue	Att	Inval	CueName2	Fem	1	0.898022064466204
290.365296348802	3.91985955767086	Jitter1	Att	Inval	CueName2	Fem	1	0.898022064466204
294.268059402104	0.5	target	Att	Inval	Face	Fem	1	0.898022064466204
294.784926797573	6.01837111827626	Jitter2	Att	Inval	Face	Fem	1	0.898022064466204
300.805984324397	0.5	cue	Att	Inval	CueFace2	Mas	1	0.926104269306961
301.322978085522	6.03785974721904	Jitter1	Att	Inval	CueFace2	Mas	1	0.926104269306961
307.343844071616	0.5	target	Att	Inval	Word	Mas	1	0.926104269306961
307.860761842581	4.61837715195361	Jitter2	Att	Inval	Word	Mas	1	0.926104269306961
312.497502428414	0.5	cue	Att	Inval	CueName2	Fem	1	0.663627155296126
313.01449789718	5.32075089088903	Jitter1	Att	Inval	CueName2	Fem	1	0.663627155296126
318.318253319303	0.5	target	Att	Inval	Face	Fem	1	0.663627155296126
318.83513636818	2.51840171356162	Jitter2	Att	Inval	Face	Fem	1	0.663627155296126
321.37034243669	0.5	cue	Att	Inval	CueName2	Mas	1	0.583713402702415
321.887400519066	3.91980092855738	Jitter1	Att	Inval	CueName2	Mas	1	0.583713402702415
325.790143365248	0.5	target	Att	Inval	Face	Mas	1	0.583713402702415
326.307089027734	6.01836798759541	Jitter2	Att	Inval	Face	Mas	1	0.583713402702415
332.328095040633	0.5	cue	Att	Val	CueFace2	Mas	1	0.770286027516704
332.845118685524	2.53542336620376	Jitter1	Att	Val	CueFace2	Mas	1	0.770286027516704
335.363518406837	0.5	target	Att	Val	Face	Mas	1	0.770286027516704
335.880426785763	6.01838193335425	Jitter2	Att	Val	Face	Mas	1	0.770286027516704
341.901453290389	0.5	cue	Att	Inval	CueFace2	Mas	1	1.09887429264563
342.418479212138	5.33736797421807	Jitter1	Att	Inval	CueFace2	Mas	1	1.09887429264563
347.738821264607	0.5	target	Att	Inval	Word	Mas	1	1.09887429264563
348.255768634735	5.31844457542684	Jitter2	Att	Inval	Word	Mas	1	1.09887429264563
353.592951756498	0.5	cue	Att	Val	CueName2	Mas	1	0.844742150031379
354.110004715945	3.2360153209811	Jitter1	Att	Val	CueName2	Mas	1	0.844742150031379
357.328967077479	0.5	target	Att	Val	Word	Mas	1	0.844742150031379
357.845839595881	2.51840769031696	Jitter2	Att	Val	Word	Mas	1	0.844742150031379
360.381023465019	0.5	cue	Att	Val	CueName2	Fem	1	0.595135833114909
360.898142453367	5.33742261882799	Jitter1	Att	Val	CueName2	Fem	1	0.595135833114909
366.218446083847	0.5	target	Att	Val	Word	Fem	1	0.595135833114909
366.735417076383	3.91839511067519	Jitter2	Att	Val	Word	Fem	1	0.595135833114909
370.67158449152	0.5	cue	Att	Val	CueName2	Fem	1	0.622036917553487
371.18869977997	3.23600735197761	Jitter1	Att	Val	CueName2	Fem	1	0.622036917553487
374.407591843497	0.5	target	Att	Val	Word	Fem	1	0.622036917553487
374.92451189132	2.51838634477099	Jitter2	Att	Val	Word	Fem	1	0.622036917553487
377.459734751665	0.5	cue	Att	Val	CueName2	Mas	1	0.573203707979701
377.976761242629	3.93655092350673	Jitter1	Att	Val	CueName2	Mas	1	0.573203707979701
381.896285675171	0.5	target	Att	Val	Word	Mas	1	0.573203707979701
382.413075372842	4.61840276661314	Jitter2	Att	Val	Word	Mas	1	0.573203707979701
387.049817666317	0.5	cue	Att	Val	CueName2	Mas	1	0.62671301591763
387.566822811732	4.63694194551499	Jitter1	Att	Val	CueName2	Mas	1	0.62671301591763
392.186759611832	0.5	target	Att	Val	Word	Mas	1	0.62671301591763
392.703617899868	6.0184374317796	Jitter2	Att	Val	Word	Mas	1	0.62671301591763
398.724680265015	0.5	cue	Att	Val	CueFace2	Mas	1	0.691947007253475
399.241682848966	5.32072755309127	Jitter1	Att	Val	CueFace2	Mas	1	0.691947007253475
404.545407818106	0.5	target	Att	Val	Face	Mas	1	0.691947007253475
405.062298835986	5.31828661835971	Jitter2	Att	Val	Face	Mas	1	0.691947007253475
410.39950586476	0.5	cue	Att	Inval	CueFace2	Fem	1	0.78542087589085
410.916536340228	3.93645671848572	Jitter1	Att	Inval	CueFace2	Fem	1	0.78542087589085
414.835962583245	0.5	target	Att	Inval	Word	Fem	1	0.78542087589085
415.35285189348	6.01843970864138	Jitter2	Att	Inval	Word	Fem	1	0.78542087589085
421.373903728156	0.5	cue	Att	Inval	CueFace2	Mas	1	0.95040404278916
421.890899766138	4.63690950028104	Jitter1	Att	Inval	CueFace2	Mas	1	0.95040404278916
426.510813228437	0.5	target	Att	Inval	Word	Mas	1	0.95040404278916
427.027709369246	3.21838261641096	Jitter2	Att	Inval	Word	Mas	1	0.95040404278916
430.26349173913	0.5	cue	Att	Inval	CueName2	Mas	1	0.668523255124455
430.780441955332	6.02120281886528	Jitter1	Att	Inval	CueName2	Mas	1	0.668523255124455
436.784694557995	0.5	target	Att	Inval	Face	Mas	1	0.668523255124455
437.301585291265	2.51846461178502	Jitter2	Att	Inval	Face	Mas	1	0.668523255124455
439.836822381974	0.5	cue	Att	Inval	CueName2	Fem	1	0.799993624794297
440.353821835244	4.6202961168492	Jitter1	Att	Inval	CueName2	Fem	1	0.799993624794297
444.957118498824	0.5	target	Att	Inval	Face	Fem	1	0.799993624794297
445.47398817115	4.61838682860252	Jitter2	Att	Inval	Face	Fem	1	0.799993624794297
450.110690334994	0.5	cue	Att	Inval	CueFace2	Mas	1	0.818920011966839
450.627727641036	2.5354782954164	Jitter1	Att	Inval	CueFace2	Mas	1	0.818920011966839
453.14616863041	0.5	target	Att	Inval	Word	Mas	1	0.818920011966839
453.663053956141	6.01835916476921	Jitter2	Att	Inval	Word	Mas	1	0.818920011966839
459.684115182863	0.5	cue	Att	Val	CueName2	Fem	1	0.680047574962373
460.201152488906	4.63690010823484	Jitter1	Att	Val	CueName2	Fem	1	0.680047574962373
464.821015291098	0.5	target	Att	Val	Word	Fem	1	0.680047574962373
465.337921393166	4.61837515969819	Jitter2	Att	Val	Word	Fem	1	0.680047574962373
