onset	duration	section	btype	validity	stim	gender	accuracy	reaction_time
10.0620984724264	0.5	cue	Att	Val	CueName2	Fem	1	0.809719795550336
10.5791246787849	3.23593506171528	Jitter1	Att	Val	CueName2	Fem	1	0.809719795550336
13.7980335341417	0.5	target	Att	Val	Word	Fem	1	0.809719795550336
14.3149777735925	6.01840470193929	Jitter2	Att	Val	Word	Fem	1	0.809719795550336
20.3526703140051	0.5	cue	Att	Inval	CueFace2	Fem	0	0.56152171568101
20.869699081828	5.33743997987403	Jitter1	Att	Inval	CueFace2	Fem	0	0.56152171568101
26.1901102938791	0.5	target	Att	Inval	Word	Fem	0	0.56152171568101
26.7070292032731	5.31840302275668	Jitter2	Att	Inval	Word	Fem	0	0.56152171568101
32.044218871004	0.5	cue	Att	Inval	CueName2	Fem	1	0.499515740633797
32.5612450773624	3.23588468621892	Jitter1	Att	Inval	CueName2	Fem	1	0.499515740633797
35.7801035572229	0.5	target	Att	Inval	Face	Fem	1	0.499515740633797
36.2971010182409	5.31839391532412	Jitter2	Att	Inval	Face	Fem	1	0.499515740633797
41.6342448641917	0.5	cue	Att	Inval	CueName2	Fem	1	0.961773251638078
42.1513368148408	2.53551899426384	Jitter1	Att	Inval	CueName2	Fem	1	0.961773251638078
44.6697638584556	0.5	target	Att	Inval	Face	Fem	1	0.961773251638078
45.186679352566	6.01839986361301	Jitter2	Att	Inval	Face	Fem	1	0.961773251638078
51.2243701853331	0.5	cue	Att	Val	CueName2	Fem	1	0.955757221981912
51.7413340626881	2.53540828201585	Jitter1	Att	Val	CueName2	Fem	1	0.955757221981912
54.259778467349	0.5	target	Att	Val	Word	Fem	1	0.955757221981912
54.7767619826082	3.91839710292697	Jitter2	Att	Val	Word	Fem	1	0.955757221981912
58.7129720888443	0.5	cue	Att	Inval	CueFace2	Fem	1	0.923015995216701
59.2299928876637	2.53546918798384	Jitter1	Att	Inval	CueFace2	Fem	1	0.923015995216701
61.7484412768281	0.5	target	Att	Inval	Word	Fem	1	0.923015995216701
62.265359332403	6.01830935848557	Jitter2	Att	Inval	Word	Fem	1	0.923015995216701
68.3029767364824	0.5	cue	Att	Val	CueFace2	Mas	1	0.679036649740738
68.8200718178123	6.02132434619125	Jitter1	Att	Val	CueFace2	Mas	1	0.679036649740738
74.8243010826736	0.5	target	Att	Val	Face	Mas	1	0.679036649740738
75.3412142999259	3.21839200845352	Jitter2	Att	Val	Face	Mas	1	0.679036649740738
78.5769124260405	0.5	cue	Att	Inval	CueFace2	Mas	0	NaN
79.0939656700975	6.03801428899533	Jitter1	Att	Inval	CueFace2	Mas	0	NaN
85.1149267150358	0.5	target	Att	Inval	Word	Mas	0	NaN
85.631782157001	2.51817232005851	Jitter2	Att	Inval	Word	Mas	0	NaN
88.1669853794374	0.5	cue	Att	Inval	CueFace2	Mas	1	0.698860688415152
88.6839748714519	5.33745335641652	Jitter1	Att	Inval	CueFace2	Mas	1	0.698860688415152
94.0044387358539	0.5	target	Att	Inval	Word	Mas	1	0.698860688415152
94.5213385765601	6.01842718591797	Jitter2	Att	Inval	Word	Mas	1	0.698860688415152
100.559042785873	0.5	cue	Att	Inval	CueName2	Fem	1	0.535870626616088
101.076084645636	4.62029327077471	Jitter1	Att	Inval	CueName2	Fem	1	0.535870626616088
105.679336056648	0.5	target	Att	Inval	Face	Fem	1	0.535870626616088
106.196245004787	2.51840854413967	Jitter2	Att	Inval	Face	Fem	1	0.535870626616088
108.731457619266	0.5	cue	Att	Inval	CueName2	Mas	1	0.624258562340401
109.248495209918	2.53547715699096	Jitter1	Att	Inval	CueName2	Mas	1	0.624258562340401
111.766934776257	0.5	target	Att	Inval	Face	Mas	1	0.624258562340401
112.283871900519	4.61837772116633	Jitter2	Att	Inval	Face	Mas	1	0.624258562340401
116.920554426455	0.5	cue	Att	Val	CueName2	Fem	1	0.54162225606342
117.43758547114	4.63695589127383	Jitter1	Att	Val	CueName2	Fem	1	0.54162225606342
122.057510317729	0.5	target	Att	Val	Word	Fem	1	0.54162225606342
122.574417842832	5.3184189607673	Jitter2	Att	Val	Word	Fem	1	0.54162225606342
127.911562542602	0.5	cue	Att	Val	CueFace2	Mas	1	1.16267101698759
128.428647947283	5.32081549675422	Jitter1	Att	Val	CueFace2	Mas	1	1.16267101698759
133.732378039356	0.5	target	Att	Val	Face	Mas	1	1.16267101698759
134.249293818073	3.91839454145884	Jitter2	Att	Val	Face	Mas	1	1.16267101698759
138.185499085983	0.5	cue	Att	Val	CueFace2	Fem	1	0.51701425284773
138.702525861558	5.32076625969057	Jitter1	Att	Val	CueFace2	Fem	1	0.51701425284773
144.006265345673	0.5	target	Att	Val	Face	Fem	1	0.51701425284773
144.523222677057	3.21825397390057	Jitter2	Att	Val	Face	Fem	1	0.51701425284773
147.758893196264	0.5	cue	Att	Val	CueName2	Fem	0	NaN
148.275929648484	3.93646127219836	Jitter1	Att	Val	CueName2	Fem	0	NaN
152.195354468462	0.5	target	Att	Val	Word	Fem	0	NaN
152.712272239431	2.51817232005851	Jitter2	Att	Val	Word	Fem	0	NaN
155.24747204658	0.5	cue	Att	Val	CueFace2	Fem	0	1.44605367751137
155.764531836601	6.02127539373396	Jitter1	Att	Val	CueFace2	Fem	0	1.44605367751137
161.768747440314	0.5	target	Att	Val	Face	Fem	0	1.44605367751137
162.28567175725	3.91826902962566	Jitter2	Att	Val	Face	Fem	0	1.44605367751137
166.221812419295	0.5	cue	Att	Val	CueFace2	Mas	1	0.792965246884705
166.73890095466	3.23602556684637	Jitter1	Att	Val	CueFace2	Mas	1	0.792965246884705
169.957837986141	0.5	target	Att	Val	Face	Mas	1	0.792965246884705
170.474757749362	5.31840017668219	Jitter2	Att	Val	Face	Mas	1	0.792965246884705
175.811955386096	0.5	cue	Att	Val	CueName2	Mas	0	1.26586308737024
176.328922678735	4.63693568414965	Jitter1	Att	Val	CueName2	Mas	0	1.26586308737024
180.948891070246	0.5	target	Att	Val	Word	Mas	0	1.26586308737024
181.465811687285	3.21839826981522	Jitter2	Att	Val	Word	Mas	0	1.26586308737024
184.70146854534	0.5	cue	Att	Val	CueName2	Mas	0	0.699745532587258
185.218565049709	5.33750145505837	Jitter1	Att	Val	CueName2	Mas	0	0.699745532587258
190.538970000398	0.5	target	Att	Val	Word	Mas	0	0.699745532587258
191.055888909792	2.51840683649425	Jitter2	Att	Val	Word	Mas	0	0.699745532587258
193.591121731391	0.5	cue	Att	Val	CueName2	Mas	1	0.813592447433621
194.10815220686	6.03790756124727	Jitter1	Att	Val	CueName2	Mas	1	0.813592447433621
200.129029292639	0.5	target	Att	Val	Word	Mas	1	0.813592447433621
200.645978939629	6.01838876392867	Jitter2	Att	Val	Word	Mas	1	0.813592447433621
206.683665787896	0.5	cue	Att	Val	CueName2	Mas	0	NaN
207.200620842421	2.53545552683136	Jitter1	Att	Val	CueName2	Mas	0	NaN
209.719121314727	0.5	target	Att	Val	Word	Mas	0	NaN
210.236039939515	5.31817334464722	Jitter2	Att	Val	Word	Mas	0	NaN
215.573237291643	0.5	cue	Att	Val	CueFace2	Fem	1	1.40130714452607
216.090275736115	3.23595868412303	Jitter1	Att	Val	CueFace2	Fem	1	1.40130714452607
219.309195975766	0.5	target	Att	Val	Face	Fem	1	1.40130714452607
219.826122854167	2.51829697806897	Jitter2	Att	Val	Face	Fem	1	1.40130714452607
222.361344291476	0.5	cue	Att	Inval	CueName2	Mas	1	0.588891832994705
222.878368220976	4.62027477129595	Jitter1	Att	Inval	CueName2	Mas	1	0.588891832994705
227.481619062772	0.5	target	Att	Inval	Face	Mas	1	0.588891832994705
227.998526303269	3.91840592574954	Jitter2	Att	Inval	Face	Mas	1	0.588891832994705
231.934733278824	0.5	cue	Att	Inval	CueName2	Fem	1	0.730893242936872
232.451807014604	5.32076540586422	Jitter1	Att	Inval	CueName2	Fem	1	0.730893242936872
237.755498684688	0.5	target	Att	Inval	Face	Fem	1	0.730893242936872
238.272425278483	3.2182787347374	Jitter2	Att	Inval	Face	Fem	1	0.730893242936872
241.508144465541	0.5	cue	Att	Inval	CueFace2	Mas	1	1.76576560936155
242.025174371793	3.93644163429417	Jitter1	Att	Inval	CueFace2	Mas	1	1.76576560936155
245.944586099835	0.5	target	Att	Inval	Word	Mas	1	1.76576560936155
246.461514970488	3.21833878688631	Jitter2	Att	Inval	Word	Mas	1	1.76576560936155
249.697226188542	0.5	cue	Att	Val	CueFace2	Fem	0	NaN
250.214260648514	3.93649144057781	Jitter1	Att	Val	CueFace2	Fem	0	NaN
254.13371762912	0.5	target	Att	Val	Face	Fem	0	NaN
254.650602385635	4.61822858692904	Jitter2	Att	Val	Face	Fem	0	NaN
259.287340125393	0.5	cue	Att	Inval	CueFace2	Fem	1	0.999003589753556
259.804339009446	3.23592538506637	Jitter1	Att	Inval	CueFace2	Fem	1	0.999003589753556
263.023265510459	0.5	target	Att	Inval	Word	Fem	1	0.999003589753556
263.54018071996	2.51843131272472	Jitter2	Att	Inval	Word	Fem	1	0.999003589753556
266.075403580304	0.5	cue	Att	Val	CueName2	Mas	1	1.67492236623366
266.592442309386	3.23591314695295	Jitter1	Att	Val	CueName2	Mas	1	1.67492236623366
269.811316727257	0.5	target	Att	Val	Word	Mas	1	1.67492236623366
270.328282312254	3.91841361015031	Jitter2	Att	Val	Word	Mas	1	1.67492236623366
274.264512341	0.5	cue	Att	Val	CueFace2	Fem	0	NaN
274.78153313982	4.62025684103719	Jitter1	Att	Val	CueFace2	Fem	0	NaN
279.384769182037	0.5	target	Att	Val	Face	Fem	0	NaN
279.901684676144	5.3181690755373	Jitter2	Att	Val	Face	Fem	0	NaN
285.238884874347	0.5	cue	Att	Val	CueName2	Fem	0	NaN
285.755939826042	6.03792805297417	Jitter1	Att	Val	CueName2	Fem	0	NaN
291.776812927321	0.5	target	Att	Val	Word	Fem	0	NaN
292.293731836719	3.2182081521205	Jitter2	Att	Val	Word	Fem	0	NaN
295.529446754666	0.5	cue	Att	Inval	CueFace2	Mas	1	1.54860338916114
296.046496298826	3.23596494548474	Jitter1	Att	Inval	CueFace2	Mas	1	1.54860338916114
299.265411700151	0.5	target	Att	Inval	Word	Mas	1	1.54860338916114
299.782325771223	5.3184038765794	Jitter2	Att	Inval	Word	Mas	1	1.54860338916114
305.119457948273	0.5	cue	Att	Inval	CueFace2	Fem	1	0.75397888157022
305.636555021854	3.93651904748549	Jitter1	Att	Inval	CueFace2	Fem	1	0.75397888157022
309.555976995758	0.5	target	Att	Inval	Word	Fem	1	0.75397888157022
310.072899605049	3.21844380698894	Jitter2	Att	Inval	Word	Fem	1	0.75397888157022
313.308629607189	0.5	cue	Att	Inval	CueName2	Fem	1	0.704025457554962
313.825639021714	6.02131182347148	Jitter1	Att	Inval	CueName2	Fem	1	0.704025457554962
319.82994143066	0.5	target	Att	Inval	Face	Fem	1	0.704025457554962
320.346787480579	3.91839624910426	Jitter2	Att	Inval	Face	Fem	1	0.704025457554962
324.283004986606	0.5	cue	Att	Val	CueFace2	Mas	1	0.823403146561759
324.799962602599	2.53544129646616	Jitter1	Att	Val	CueFace2	Mas	1	0.823403146561759
327.318446283072	0.5	target	Att	Val	Face	Mas	1	0.823403146561759
327.835407314353	4.61838711320888	Jitter2	Att	Val	Face	Mas	1	0.823403146561759
332.47208300971	0.5	cue	Att	Inval	CueFace2	Fem	1	1.57283343384552
332.989077055441	4.63688730090871	Jitter1	Att	Inval	CueFace2	Fem	1	1.57283343384552
337.608970310619	0.5	target	Att	Inval	Word	Fem	1	1.57283343384552
338.12595553352	3.91839994899783	Jitter2	Att	Inval	Word	Fem	1	1.57283343384552
342.06216108604	0.5	cue	Att	Inval	CueName2	Mas	1	0.730793630373228
342.579212337841	5.32076569047422	Jitter1	Att	Inval	CueName2	Mas	1	0.730793630373228
347.882926776514	0.5	target	Att	Inval	Face	Mas	1	0.730793630373228
348.39983913994	6.01829085901045	Jitter2	Att	Inval	Face	Mas	1	0.730793630373228
354.43754818758	0.5	cue	Att	Val	CueName2	Mas	0	NaN
354.954566140324	3.93642854235804	Jitter1	Att	Val	CueName2	Mas	0	NaN
358.873976729938	0.5	target	Att	Val	Word	Mas	0	NaN
359.390912146559	4.61816483488656	Jitter2	Att	Val	Word	Mas	0	NaN
364.027606341395	0.5	cue	Att	Inval	CueName2	Fem	0	NaN
364.54463681686	3.93645358780122	Jitter1	Att	Inval	CueName2	Fem	0	NaN
368.464059929196	0.5	target	Att	Inval	Face	Fem	0	NaN
368.980972008016	4.61819443404966	Jitter2	Att	Inval	Face	Fem	0	NaN
373.617677587146	0.5	cue	Att	Val	CueFace2	Mas	1	0.516994614943542
374.134748761462	3.93645415701758	Jitter1	Att	Val	CueFace2	Mas	1	0.516994614943542
378.054131744164	0.5	target	Att	Val	Face	Mas	1	0.516994614943542
378.571059760994	6.01841267094642	Jitter2	Att	Val	Face	Mas	1	0.516994614943542
384.608736363396	0.5	cue	Att	Inval	CueName2	Mas	1	0.611462901579216
385.12577253101	6.02126087875877	Jitter1	Att	Inval	CueName2	Mas	1	0.611462901579216
391.129997242155	0.5	target	Att	Inval	Face	Mas	1	0.611462901579216
391.64691529773	3.21839371609894	Jitter2	Att	Inval	Face	Mas	1	0.611462901579216
394.882633630968	0.5	cue	Att	Inval	CueName2	Mas	0	NaN
395.39967207544	3.93635795974114	Jitter1	Att	Inval	CueName2	Mas	0	NaN
399.31899159071	0.5	target	Att	Inval	Face	Mas	0	NaN
399.83602804293	5.31817391385994	Jitter2	Att	Inval	Face	Mas	0	NaN
405.173204903331	0.5	cue	Att	Inval	CueFace2	Mas	1	2.14065948640564
405.690230540473	2.53545609604407	Jitter1	Att	Inval	CueFace2	Mas	1	2.14065948640564
408.208660999375	0.5	target	Att	Inval	Word	Mas	1	2.14065948640564
408.725586454741	3.91838685706171	Jitter2	Att	Inval	Word	Mas	1	2.14065948640564
412.66180026087	0.5	cue	Att	Val	CueFace2	Fem	1	0.860048616625136
413.178765845871	2.53546378044484	Jitter1	Att	Val	CueFace2	Fem	1	0.860048616625136
415.697264041315	0.5	target	Att	Val	Face	Fem	1	0.860048616625136
416.214178681603	6.0184468238258	Jitter2	Att	Val	Face	Fem	1	0.860048616625136
422.251869229764	0.5	cue	Att	Val	CueFace2	Mas	1	0.857050563055964
422.768892874657	4.62027249443781	Jitter1	Att	Val	CueFace2	Mas	1	0.857050563055964
427.372141724201	0.5	target	Att	Val	Face	Mas	1	0.857050563055964
427.889054656844	2.5184014289589	Jitter2	Att	Val	Face	Mas	1	0.857050563055964
430.42427950944	0.5	cue	Att	Inval	CueFace2	Mas	1	0.956033575694164
430.941288639358	4.63688246258243	Jitter1	Att	Inval	CueFace2	Mas	1	0.956033575694164
435.561161972022	0.5	target	Att	Inval	Word	Mas	1	0.956033575694164
436.078144633459	4.6183993513223	Jitter2	Att	Inval	Word	Mas	1	0.956033575694164
440.714854197089	0.5	cue	Att	Inval	CueName2	Mas	1	0.530365182505193
441.231853081146	3.2359717760628	Jitter1	Att	Inval	CueName2	Mas	1	0.530365182505193
444.450825973152	0.5	target	Att	Inval	Face	Mas	1	0.530365182505193
444.967725813858	2.51841110560417	Jitter2	Att	Inval	Face	Mas	1	0.530365182505193
447.502953797131	0.5	cue	Att	Inval	CueFace2	Fem	1	0.82821841790792
448.019978295844	6.03786800082889	Jitter1	Att	Inval	CueFace2	Fem	1	0.82821841790792
454.04082179796	0.5	target	Att	Inval	Word	Fem	1	0.82821841790792
454.557801613326	4.61840333582586	Jitter2	Att	Inval	Word	Fem	1	0.82821841790792
459.194509753921	0.5	cue	Att	Val	CueName2	Fem	1	1.03704050502711
459.711540798602	5.33743684919318	Jitter1	Att	Val	CueName2	Fem	1	1.03704050502711
465.031946603114	0.5	target	Att	Val	Word	Fem	1	1.03704050502711
465.548869212405	4.6183993513223	Jitter2	Att	Val	Word	Fem	1	1.03704050502711
