onset	duration	section	btype	validity	stim	gender	accuracy	reaction_time
10.068173415797	0.5	cue	Att	Val	CueName2	Fem	1	0.835739166492203
10.5851999067618	3.23586960203102	Jitter1	Att	Val	CueName2	Fem	1	0.835739166492203
13.804043017828	0.5	target	Att	Val	Word	Fem	1	0.835739166492203
14.3209889649188	6.01841722466452	Jitter2	Att	Val	Word	Fem	1	0.835739166492203
20.3586826437622	0.5	cue	Att	Inval	CueFace2	Fem	1	0.627588468052636
20.8757452798582	5.3373847660514	Jitter1	Att	Inval	CueFace2	Fem	1	0.627588468052636
26.1960674098136	0.5	target	Att	Inval	Word	Fem	1	0.627588468052636
26.7130218951261	5.31838708474606	Jitter2	Att	Inval	Word	Fem	1	0.627588468052636
32.0501643180396	0.5	cue	Att	Inval	CueName2	Fem	1	0.613402500503071
32.5672827371709	3.23604577396509	Jitter1	Att	Inval	CueName2	Fem	1	0.613402500503071
35.7862100920047	0.5	target	Att	Inval	Face	Fem	1	0.613402500503071
36.303103386741	5.31845738275661	Jitter2	Att	Inval	Face	Fem	1	0.613402500503071
41.6402933390782	0.5	cue	Att	Inval	CueName2	Fem	1	0.619865079052033
42.1573050304614	2.53540998965946	Jitter1	Att	Inval	CueName2	Fem	1	0.619865079052033
44.6757033287377	0.5	target	Att	Inval	Face	Fem	1	0.619865079052033
45.1926404530022	6.01840270969115	Jitter2	Att	Inval	Face	Fem	1	0.619865079052033
51.230336693312	0.5	cue	Att	Val	CueName2	Fem	1	1.0936440638161
51.7473998986225	2.53550647154407	Jitter1	Att	Val	CueName2	Fem	1	1.0936440638161
54.2658431648561	0.5	target	Att	Val	Word	Fem	1	1.0936440638161
54.782698037603	3.91840421810775	Jitter2	Att	Val	Word	Fem	1	1.0936440638161
58.7189223742043	0.5	cue	Att	Inval	CueFace2	Fem	1	0.621060999033944
59.236010909568	2.53547374170194	Jitter1	Att	Inval	CueFace2	Fem	1	0.621060999033944
61.7543961159063	0.5	target	Att	Inval	Word	Fem	1	0.621060999033944
62.2713178713748	6.01849606089309	Jitter2	Att	Inval	Word	Fem	1	0.621060999033944
68.3089816664487	0.5	cue	Att	Val	CueFace2	Mas	1	0.465175020697643
68.8260425949011	6.02125518661342	Jitter1	Att	Val	CueFace2	Mas	1	0.465175020697643
74.8302368530622	0.5	target	Att	Val	Face	Mas	1	0.465175020697643
75.347217806855	3.21845035295519	Jitter2	Att	Val	Face	Mas	1	0.465175020697643
78.5828487656436	0.5	cue	Att	Inval	CueFace2	Mas	1	1.9984750739477
79.0999290473937	6.03799465108932	Jitter1	Att	Inval	CueFace2	Mas	1	1.9984750739477
85.1208434167329	0.5	target	Att	Inval	Word	Mas	1	1.9984750739477
85.6377005663398	2.51841793618041	Jitter2	Att	Inval	Word	Mas	1	1.9984750739477
88.1728585362125	0.5	cue	Att	Inval	CueFace2	Mas	1	0.556897131244114
88.6899052342978	5.33753845400679	Jitter1	Att	Inval	CueFace2	Mas	1	0.556897131244114
94.0103969902193	0.5	target	Att	Inval	Word	Mas	1	0.556897131244114
94.5272399094592	6.01846873858995	Jitter2	Att	Inval	Word	Mas	1	0.556897131244114
100.564851906	0.5	cue	Att	Inval	CueName2	Fem	0	0.681980912524523
101.081991386074	4.62035559977812	Jitter1	Att	Inval	CueName2	Fem	0	0.681980912524523
105.685207505778	0.5	target	Att	Inval	Face	Fem	0	0.681980912524523
106.202065509206	2.51842675900843	Jitter2	Att	Inval	Face	Fem	0	0.681980912524523
108.737330491434	0.5	cue	Att	Inval	CueName2	Mas	1	1.40231323142325
109.254397112032	2.53551330211849	Jitter1	Att	Inval	CueName2	Mas	1	1.40231323142325
111.772843793553	0.5	target	Att	Inval	Face	Mas	1	1.40231323142325
112.289726273211	4.618430658129	Jitter2	Att	Inval	Face	Mas	1	1.40231323142325
116.926453482498	0.5	cue	Att	Val	CueName2	Fem	1	0.815717041121388
117.443497903723	4.63692316142806	Jitter1	Att	Val	CueName2	Fem	1	0.815717041121388
122.063376643926	0.5	target	Att	Val	Word	Fem	1	0.815717041121388
122.580275915418	5.31842493752083	Jitter2	Att	Val	Word	Fem	1	0.815717041121388
127.917453060425	0.5	cue	Att	Val	CueFace2	Mas	1	0.636804337869762
128.434499189296	5.32075800607527	Jitter1	Att	Val	CueFace2	Mas	1	0.636804337869762
133.7382110665	0.5	target	Att	Val	Face	Mas	1	0.636804337869762
134.255074477467	3.91833249706178	Jitter2	Att	Val	Face	Mas	1	0.636804337869762
138.1912922681	0.5	cue	Att	Val	CueFace2	Fem	1	0.698822551032208
138.708387349432	5.32083712691201	Jitter1	Att	Val	CueFace2	Fem	1	0.698822551032208
144.012129395012	0.5	target	Att	Val	Face	Fem	1	0.698822551032208
144.528981706295	3.21844124552081	Jitter2	Att	Val	Face	Fem	1	0.698822551032208
147.764707723929	0.5	cue	Att	Val	CueName2	Fem	1	0.629734122681839
148.281794836255	3.93647493335266	Jitter1	Att	Val	CueName2	Fem	1	0.629734122681839
152.201182657282	0.5	target	Att	Val	Word	Fem	1	0.629734122681839
152.718079651913	2.51842846665204	Jitter2	Att	Val	Word	Fem	1	0.629734122681839
155.253285435818	0.5	cue	Att	Val	CueFace2	Fem	1	0.544263696656344
155.770317618928	6.02130328524981	Jitter1	Att	Val	CueFace2	Fem	1	0.544263696656344
161.774588721068	0.5	target	Att	Val	Face	Fem	1	0.544263696656344
162.291428509627	3.91840393350139	Jitter2	Att	Val	Face	Fem	1	0.544263696656344
166.227652561622	0.5	cue	Att	Val	CueFace2	Mas	0	NaN
166.744718328398	3.23594701522416	Jitter1	Att	Val	CueFace2	Mas	0	NaN
169.963599576846	0.5	target	Att	Val	Face	Mas	0	NaN
170.480506532733	5.31822058946273	Jitter2	Att	Val	Face	Mas	0	NaN
175.817705877113	0.5	cue	Att	Val	CueName2	Mas	1	0.676017250620134
176.334781605145	4.63696955242267	Jitter1	Att	Val	CueName2	Mas	1	0.676017250620134
180.954675429535	0.5	target	Att	Val	Word	Mas	1	0.676017250620134
181.471517210346	3.21847824447468	Jitter2	Att	Val	Word	Mas	1	0.676017250620134
184.707319787352	0.5	cue	Att	Val	CueName2	Mas	1	2.13396893738718
185.224282526277	5.3374231880407	Jitter1	Att	Val	CueName2	Mas	1	2.13396893738718
190.544742975393	0.5	target	Att	Val	Word	Mas	1	2.13396893738718
191.061579064057	2.51835133806708	Jitter2	Att	Val	Word	Mas	1	2.13396893738718
193.596861976546	0.5	cue	Att	Val	CueName2	Mas	1	0.663906924297407
194.113896151908	6.03784893213924	Jitter1	Att	Val	CueName2	Mas	1	0.663906924297407
200.134710908686	0.5	target	Att	Val	Word	Mas	1	0.663906924297407
200.651664255567	6.01845991576192	Jitter2	Att	Val	Word	Mas	1	0.663906924297407
206.689399487081	0.5	cue	Att	Val	CueName2	Mas	1	0.761734715804778
207.206391825166	2.5354578036895	Jitter1	Att	Val	CueName2	Mas	1	0.761734715804778
209.72485729077	0.5	target	Att	Val	Word	Mas	1	0.761734715804778
210.241755139225	5.31842038380455	Jitter2	Att	Val	Word	Mas	1	0.761734715804778
215.578997743916	0.5	cue	Att	Val	CueFace2	Fem	1	0.595623365463325
216.095972436349	3.23588269396896	Jitter1	Att	Val	CueFace2	Fem	1	0.595623365463325
219.314880437885	0.5	target	Att	Val	Face	Fem	1	0.595623365463325
219.831782270841	2.51831690058134	Jitter2	Att	Val	Face	Fem	1	0.595623365463325
222.367019930765	0.5	cue	Att	Inval	CueName2	Mas	1	1.13447468460618
222.884084559113	4.63693767640325	Jitter1	Att	Inval	CueName2	Mas	1	1.13447468460618
227.503957607169	0.5	target	Att	Inval	Face	Mas	1	1.13447468460618
228.020860578556	3.91846740093388	Jitter2	Att	Inval	Face	Mas	1	1.13447468460618
231.957072107827	0.5	cue	Att	Inval	CueName2	Fem	1	0.748468883739406
232.474114536803	5.32080752774891	Jitter1	Att	Inval	CueName2	Fem	1	0.748468883739406
237.777879635576	0.5	target	Att	Inval	Face	Fem	1	0.748468883739406
238.294733654502	3.21839627756344	Jitter2	Att	Inval	Face	Fem	1	0.748468883739406
241.530446864808	0.5	cue	Att	Inval	CueFace2	Mas	0	0.631377445382896
242.04742895703	3.93649798654405	Jitter1	Att	Inval	CueFace2	Mas	0	0.631377445382896
245.966944851352	0.5	target	Att	Inval	Word	Mas	0	0.631377445382896
246.483805700855	3.21842018457937	Jitter2	Att	Inval	Word	Mas	0	0.631377445382896
249.719488458177	0.5	cue	Att	Val	CueFace2	Fem	1	0.546290100815895
250.236590085475	3.93652758570715	Jitter1	Att	Val	CueFace2	Fem	1	0.546290100815895
254.156016043884	0.5	target	Att	Val	Face	Fem	1	0.546290100815895
254.672884577783	4.61835438336493	Jitter2	Att	Val	Face	Fem	1	0.546290100815895
259.30964679377	0.5	cue	Att	Inval	CueFace2	Fem	1	0.648605580638105
259.826647954684	3.23593733857342	Jitter1	Att	Inval	CueFace2	Fem	1	0.648605580638105
263.045584132344	0.5	target	Att	Inval	Word	Fem	1	0.648605580638105
263.562450389385	2.51844639691444	Jitter2	Att	Inval	Word	Fem	1	0.648605580638105
266.097725332869	0.5	cue	Att	Val	CueName2	Mas	1	1.4284919824695
266.614691771689	3.23595270736951	Jitter1	Att	Val	CueName2	Mas	1	1.4284919824695
269.833678040239	0.5	target	Att	Val	Word	Mas	1	1.4284919824695
270.3505528355	3.91843808637896	Jitter2	Att	Val	Word	Mas	1	1.4284919824695
274.286808478906	0.5	cue	Att	Val	CueFace2	Fem	0	NaN
274.803840946626	4.63684688666763	Jitter1	Att	Val	CueFace2	Fem	0	NaN
279.423655365574	0.5	target	Att	Val	Face	Fem	0	NaN
279.940604158739	5.31820892056021	Jitter2	Att	Val	Face	Fem	0	NaN
285.277773050133	0.5	cue	Att	Val	CueName2	Fem	0	NaN
285.794871546752	6.03795509067095	Jitter1	Att	Val	CueName2	Fem	0	NaN
291.815728140804	0.5	target	Att	Val	Word	Fem	0	NaN
292.332597813134	3.21822295170205	Jitter2	Att	Val	Word	Fem	0	NaN
295.568329522916	0.5	cue	Att	Inval	CueFace2	Mas	0	NaN
296.085419481315	3.23600165982862	Jitter1	Att	Inval	CueFace2	Mas	0	NaN
299.304331182744	0.5	target	Att	Inval	Word	Mas	0	NaN
299.821245823032	5.31813065354618	Jitter2	Att	Inval	Word	Mas	0	NaN
305.158450859557	0.5	cue	Att	Inval	CueFace2	Fem	0	NaN
305.675480765809	3.936410896702	Jitter1	Att	Inval	CueFace2	Fem	0	NaN
309.594861756259	0.5	target	Att	Inval	Word	Fem	0	NaN
310.11177383508	3.21814610772344	Jitter2	Att	Inval	Word	Fem	0	NaN
313.347537990097	0.5	cue	Att	Inval	CueName2	Fem	0	NaN
313.864538866403	6.02121363394326	Jitter1	Att	Inval	CueName2	Fem	0	NaN
319.868751624041	0.5	target	Att	Inval	Face	Fem	0	NaN
320.385635242128	3.91815433287593	Jitter2	Att	Inval	Face	Fem	0	NaN
324.32187323988	0.5	cue	Att	Val	CueFace2	Mas	1	0.824515676597002
324.838972021107	2.53544727322151	Jitter1	Att	Val	CueFace2	Mas	1	0.824515676597002
327.357320513102	0.5	target	Att	Val	Face	Mas	1	0.824515676597002
327.874218646162	4.61825847069667	Jitter2	Att	Val	Face	Mas	1	0.824515676597002
332.510969193248	0.5	cue	Att	Inval	CueFace2	Fem	0	NaN
333.02800137636	4.63690010823666	Jitter1	Att	Inval	CueFace2	Fem	0	NaN
337.647869301485	0.5	target	Att	Inval	Word	Fem	0	NaN
338.164770280619	3.91825650690771	Jitter2	Att	Inval	Word	Fem	0	NaN
342.101016531986	0.5	cue	Att	Inval	CueName2	Mas	0	NaN
342.618112751745	5.32076170596883	Jitter1	Att	Inval	CueName2	Mas	0	NaN
347.921778237955	0.5	target	Att	Inval	Face	Mas	0	NaN
348.438670109656	6.01824361419494	Jitter2	Att	Inval	Face	Mas	0	NaN
354.47633703541	0.5	cue	Att	Val	CueName2	Mas	1	1.10084434455348
354.993339903967	3.93645927994839	Jitter1	Att	Val	CueName2	Mas	1	1.10084434455348
358.912796315359	0.5	target	Att	Val	Word	Mas	1	1.10084434455348
359.429716363184	4.61841984305102	Jitter2	Att	Val	Word	Mas	1	1.10084434455348
364.066369005352	0.5	cue	Att	Inval	CueName2	Fem	0	NaN
364.583481447728	3.93645045712037	Jitter1	Att	Inval	CueName2	Fem	0	NaN
368.502819462472	0.5	target	Att	Inval	Face	Fem	0	NaN
369.019769678674	4.61821407195384	Jitter2	Att	Inval	Face	Fem	0	NaN
373.656420043983	0.5	cue	Att	Val	CueFace2	Mas	1	0.632649640128875
374.173519109816	3.93647692560262	Jitter1	Att	Val	CueFace2	Mas	1	0.632649640128875
378.092896969585	0.5	target	Att	Val	Face	Mas	1	0.632649640128875
378.609831532385	6.01842462445347	Jitter2	Att	Val	Face	Mas	1	0.632649640128875
384.647492765993	0.5	cue	Att	Inval	CueName2	Mas	0	NaN
385.16452637214	6.02125917111516	Jitter1	Att	Inval	CueName2	Mas	0	NaN
391.168751937108	0.5	target	Att	Inval	Face	Mas	0	NaN
391.685638116662	3.21816119191317	Jitter2	Att	Inval	Face	Mas	0	NaN
394.921405971574	0.5	cue	Att	Inval	CueName2	Mas	0	NaN
395.438398025051	3.9364655413101	Jitter1	Att	Inval	CueName2	Mas	0	NaN
399.357871512884	0.5	target	Att	Inval	Face	Mas	0	NaN
399.874714716731	5.3181850135461	Jitter2	Att	Inval	Face	Mas	0	NaN
405.211850309068	0.5	cue	Att	Inval	CueFace2	Mas	0	NaN
405.728946528829	2.53557705416097	Jitter1	Att	Inval	CueFace2	Mas	0	NaN
408.247427363229	0.5	target	Att	Inval	Word	Mas	0	NaN
408.764282520584	3.91815148680325	Jitter2	Att	Inval	Word	Mas	0	NaN
412.700508280222	0.5	cue	Att	Val	CueFace2	Fem	0	NaN
413.217563801136	2.53545239615232	Jitter1	Att	Val	CueFace2	Fem	0	NaN
415.735960676375	0.5	target	Att	Val	Face	Fem	0	NaN
416.252866493833	6.01818697733688	Jitter2	Att	Val	Face	Fem	0	NaN
422.290557895818	0.5	cue	Att	Val	CueFace2	Mas	1	0.634360699372337
422.807625939453	4.62031603935793	Jitter1	Att	Val	CueFace2	Mas	1	0.634360699372337
427.410873935176	0.5	target	Att	Val	Face	Mas	1	0.634360699372337
427.927721977348	2.51844725073533	Jitter2	Att	Val	Face	Mas	1	0.634360699372337
430.462957645022	0.5	cue	Att	Inval	CueFace2	Mas	0	NaN
430.979924368448	4.63687307053988	Jitter1	Att	Inval	CueFace2	Mas	0	NaN
435.599830715562	0.5	target	Att	Inval	Word	Mas	0	NaN
436.11679943124	4.6182189102783	Jitter2	Att	Inval	Word	Mas	0	NaN
440.75355168597	0.5	cue	Att	Inval	CueName2	Mas	0	NaN
441.270547154738	3.23590745480578	Jitter1	Att	Inval	CueName2	Mas	0	NaN
444.489459140776	0.5	target	Att	Inval	Face	Mas	0	NaN
445.006365242842	2.51820049618436	Jitter2	Att	Inval	Face	Mas	0	NaN
447.541573018998	0.5	cue	Att	Inval	CueFace2	Fem	0	NaN
448.058668669542	6.03789219245118	Jitter1	Att	Inval	CueFace2	Fem	0	NaN
454.079465211449	0.5	target	Att	Inval	Word	Fem	0	NaN
454.596455272676	4.61812840514904	Jitter2	Att	Inval	Word	Fem	0	NaN
459.233134383325	0.5	cue	Att	Val	CueName2	Fem	0	NaN
459.750200434708	5.33743115704601	Jitter1	Att	Val	CueName2	Fem	0	NaN
465.070565540371	0.5	target	Att	Val	Word	Fem	0	NaN
465.587466519504	4.6181574350976	Jitter2	Att	Val	Word	Fem	0	NaN
