onset	duration	section	btype	validity	stim	gender	accuracy	reaction_time
10.0679043705277	0.5	cue	Att	Val	CueName2	Fem	1	0.539834750823502
10.5849516863454	3.23602595398552	Jitter1	Att	Val	CueName2	Fem	1	0.539834750823502
13.8039303245132	0.5	target	Att	Val	Word	Fem	1	0.539834750823502
14.3207767069871	6.01850635942719	Jitter2	Att	Val	Word	Fem	1	0.539834750823502
20.3584992385313	0.5	cue	Att	Inval	CueFace2	Fem	1	0.467821492638905
20.8755291932521	5.33746940106721	Jitter1	Att	Inval	CueFace2	Fem	1	0.467821492638905
26.1959686395985	0.5	target	Att	Inval	Word	Fem	1	0.467821492638905
26.7128779204704	5.31843922036751	Jitter2	Att	Inval	Word	Fem	1	0.467821492638905
32.0500016649585	0.5	cue	Att	Inval	CueName2	Fem	1	0.733771288332719
32.567105048578	3.23604729959516	Jitter1	Att	Inval	CueName2	Fem	1	0.733771288332719
35.7860489645536	0.5	target	Att	Inval	Face	Fem	1	0.733771288332719
36.3029508456129	5.3183458689	Jitter2	Att	Inval	Face	Fem	1	0.733771288332719
41.6401810335428	0.5	cue	Att	Inval	CueName2	Fem	1	0.460016683728099
42.1571404054466	2.53547640413672	Jitter1	Att	Inval	CueName2	Fem	1	0.460016683728099
44.6756574376795	0.5	target	Att	Inval	Face	Fem	1	0.460016683728099
45.1925559034426	6.01845484535261	Jitter2	Att	Inval	Face	Fem	1	0.460016683728099
51.2302835579321	0.5	cue	Att	Val	CueName2	Fem	0	0.693895411632184
51.7473083897075	2.53547498109583	Jitter1	Att	Val	CueName2	Fem	0	0.693895411632184
54.265758539028	0.5	target	Att	Val	Word	Fem	0	0.693895411632184
54.7826581432219	3.91836442534986	Jitter2	Att	Val	Word	Fem	0	0.693895411632184
58.7188273689426	0.5	cue	Att	Inval	CueFace2	Fem	1	0.685269508250713
59.2359284756985	2.53555239450907	Jitter1	Att	Inval	CueFace2	Fem	1	0.685269508250713
61.7543797634517	0.5	target	Att	Inval	Word	Fem	1	0.685269508250713
62.2712776599983	6.01843207670208	Jitter2	Att	Inval	Word	Fem	1	0.685269508250713
68.308999337718	0.5	cue	Att	Val	CueFace2	Mas	1	0.641352196022126
68.8260494996157	6.02128598478521	Jitter1	Att	Val	CueFace2	Mas	1	0.641352196022126
74.8302853225032	0.5	target	Att	Val	Face	Mas	1	0.641352196022126
75.3471755346291	3.21841938317993	Jitter2	Att	Val	Face	Mas	1	0.641352196022126
78.5829255610279	0.5	cue	Att	Inval	CueFace2	Mas	1	0.462741522022043
79.0999603540877	6.03788433126829	Jitter1	Att	Inval	CueFace2	Mas	1	0.462741522022043
85.1208098922962	0.5	target	Att	Inval	Word	Mas	1	0.462741522022043
85.6377715410654	2.51842311154724	Jitter2	Att	Inval	Word	Mas	1	0.462741522022043
88.1730238162945	0.5	cue	Att	Inval	CueFace2	Mas	1	0.493066803504917
88.6901044312635	5.3374842006906	Jitter1	Att	Inval	CueFace2	Mas	1	0.493066803504917
94.0105080169851	0.5	target	Att	Inval	Word	Mas	1	0.493066803504917
94.5273845679203	6.01842040777046	Jitter2	Att	Inval	Word	Mas	1	0.493066803504917
100.565103399558	0.5	cue	Att	Inval	CueName2	Fem	1	0.778075098411136
101.082138477228	4.62029332852944	Jitter1	Att	Inval	CueName2	Fem	1	0.778075098411136
105.685396728088	0.5	target	Att	Inval	Face	Fem	1	0.778075098411136
106.202255348711	2.51839294308593	Jitter2	Att	Inval	Face	Fem	1	0.778075098411136
108.737594429422	0.5	cue	Att	Inval	CueName2	Mas	1	0.530499888576742
109.254566608692	2.53541720564317	Jitter1	Att	Inval	CueName2	Mas	1	0.530499888576742
111.773011635065	0.5	target	Att	Inval	Face	Mas	1	0.530499888576742
112.289913800734	4.61829239102917	Jitter2	Att	Inval	Face	Mas	1	0.530499888576742
116.926630014832	0.5	cue	Att	Val	CueName2	Fem	1	0.535807261094305
117.443685015069	4.63697421137113	Jitter1	Att	Val	CueName2	Fem	1	0.535807261094305
122.063604226203	0.5	target	Att	Val	Word	Fem	1	0.535807261094305
122.580510945601	5.31833163849296	Jitter2	Att	Val	Word	Fem	1	0.535807261094305
127.917736579802	0.5	cue	Att	Val	CueFace2	Mas	1	0.484873789098856
128.434778203457	5.32079449499543	Jitter1	Att	Val	CueFace2	Mas	1	0.484873789098856
133.738531074798	0.5	target	Att	Val	Face	Mas	1	0.484873789098856
134.255417017803	3.91845265387019	Jitter2	Att	Val	Face	Mas	1	0.484873789098856
138.191658249381	0.5	cue	Att	Val	CueFace2	Fem	1	0.5389302661697
138.708684219589	5.32079164891366	Jitter1	Att	Val	CueFace2	Fem	1	0.5389302661697
144.012449898295	0.5	target	Att	Val	Face	Fem	1	0.5389302661697
144.52934210268	3.21841226797551	Jitter2	Att	Val	Face	Fem	1	0.5389302661697
147.765085298483	0.5	cue	Att	Val	CueName2	Fem	1	0.621785102073773
148.282115537811	3.93646109136353	Jitter1	Att	Val	CueName2	Fem	1	0.621785102073773
152.201546389846	0.5	target	Att	Val	Word	Fem	1	0.621785102073773
152.718447132474	2.51845641069849	Jitter2	Att	Val	Word	Fem	1	0.621785102073773
155.253758890804	0.5	cue	Att	Val	CueFace2	Fem	1	0.552318802096124
155.770752131075	6.02122223256265	Jitter1	Att	Val	CueFace2	Fem	1	0.552318802096124
161.774981123366	0.5	target	Att	Val	Face	Fem	1	0.552318802096124
162.291874181574	3.91841821628623	Jitter2	Att	Val	Face	Fem	1	0.552318802096124
166.228106874909	0.5	cue	Att	Val	CueFace2	Mas	1	0.459240557343946
166.745135691199	3.23596846314103	Jitter1	Att	Val	CueFace2	Mas	1	0.459240557343946
169.96407533805	0.5	target	Att	Val	Face	Mas	1	0.459240557343946
170.480981203626	5.31842442074412	Jitter2	Att	Val	Face	Mas	1	0.459240557343946
175.818213668419	0.5	cue	Att	Val	CueName2	Mas	1	0.516927495791606
176.335250169128	4.63698075736102	Jitter1	Att	Val	CueName2	Mas	1	0.516927495791606
180.95519442578	0.5	target	Att	Val	Word	Mas	1	0.516927495791606
181.472066422986	3.21841369101639	Jitter2	Att	Val	Word	Mas	1	0.516927495791606
184.707818726249	0.5	cue	Att	Val	CueName2	Mas	0	0.6539702977243
185.224850388619	5.33744805545757	Jitter1	Att	Val	CueName2	Mas	0	0.6539702977243
190.545266781706	0.5	target	Att	Val	Word	Mas	0	0.6539702977243
191.062173785713	2.51842368076359	Jitter2	Att	Val	Word	Mas	0	0.6539702977243
193.597348647529	0.5	cue	Att	Val	CueName2	Mas	1	0.43183478611536
194.114456869487	6.03802065856507	Jitter1	Att	Val	CueName2	Mas	1	0.43183478611536
200.135369306094	0.5	target	Att	Val	Word	Mas	1	0.43183478611536
200.652466428337	6.01825476583326	Jitter2	Att	Val	Word	Mas	1	0.43183478611536
206.689999126253	0.5	cue	Att	Val	CueName2	Mas	1	0.617696990810146
207.20703591157	2.53549376523188	Jitter1	Att	Val	CueName2	Mas	1	0.617696990810146
209.725492891484	0.5	target	Att	Val	Word	Mas	1	0.617696990810146
210.242375419193	5.31842840525678	Jitter2	Att	Val	Word	Mas	1	0.617696990810146
215.579605607121	0.5	cue	Att	Val	CueFace2	Fem	1	0.651511283431319
216.096562417553	3.23596533245291	Jitter1	Att	Val	CueFace2	Fem	1	0.651511283431319
219.315570939574	0.5	target	Att	Val	Face	Fem	1	0.651511283431319
219.832480220446	2.51843250361526	Jitter2	Att	Val	Face	Fem	1	0.651511283431319
222.367661059034	0.5	cue	Att	Inval	CueName2	Mas	1	0.567073457075821
222.884773265507	4.62035594231747	Jitter1	Att	Inval	CueName2	Mas	1	0.567073457075821
227.488017001351	0.5	target	Att	Inval	Face	Mas	1	0.567073457075821
228.004907498087	3.91842049315164	Jitter2	Att	Inval	Face	Mas	1	0.567073457075821
231.941152144964	0.5	cue	Att	Inval	CueName2	Fem	1	0.516972463878119
232.458183807334	5.32078851822553	Jitter1	Att	Inval	CueName2	Fem	1	0.516972463878119
237.761940663189	0.5	target	Att	Inval	Face	Fem	1	0.516972463878119
238.278834575221	3.21842336769441	Jitter2	Att	Inval	Face	Fem	1	0.516972463878119
241.514575494159	0.5	cue	Att	Inval	CueFace2	Mas	1	0.559955692206131
242.031616263988	3.93647560637874	Jitter1	Att	Inval	CueFace2	Mas	1	0.559955692206131
245.951051100537	0.5	target	Att	Inval	Word	Mas	1	0.559955692206131
246.467936189718	3.21842450612712	Jitter2	Att	Inval	Word	Mas	1	0.559955692206131
249.703690769846	0.5	cue	Att	Val	CueFace2	Fem	1	0.474971133620784
250.220722432216	3.93638453177482	Jitter1	Att	Val	CueFace2	Fem	1	0.474971133620784
254.140075301621	0.5	target	Att	Val	Face	Fem	1	0.474971133620784
254.657048050107	4.61842615685418	Jitter2	Att	Val	Face	Fem	1	0.474971133620784
259.293785609814	0.5	cue	Att	Inval	CueFace2	Fem	1	0.689219584568491
259.810813003063	3.23596618627744	Jitter1	Att	Inval	CueFace2	Fem	1	0.689219584568491
263.029751796092	0.5	target	Att	Inval	Word	Fem	1	0.689219584568491
263.546657092449	2.5184381957788	Jitter2	Att	Inval	Word	Fem	1	0.689219584568491
266.081885745203	0.5	cue	Att	Val	CueName2	Mas	1	0.517074638199119
266.598961806443	3.23598696267072	Jitter1	Att	Val	CueName2	Mas	1	0.517074638199119
269.817872707874	0.5	target	Att	Val	Word	Mas	1	0.517074638199119
270.334805611221	3.91840483970373	Jitter2	Att	Val	Word	Mas	1	0.517074638199119
274.271055665651	0.5	cue	Att	Val	CueFace2	Fem	1	0.631700564917992
274.788060005641	4.62025746790459	Jitter1	Att	Val	CueFace2	Fem	1	0.631700564917992
279.391313133556	0.5	target	Att	Val	Face	Fem	1	0.631700564917992
279.908209322453	5.31843665889392	Jitter2	Att	Val	Face	Fem	1	0.631700564917992
285.245438087342	0.5	cue	Att	Val	CueName2	Fem	1	0.447488518197133
285.762469180498	6.03795149878897	Jitter1	Att	Val	CueName2	Fem	1	0.447488518197133
291.783389586131	0.5	target	Att	Val	Word	Fem	1	0.447488518197133
292.300411002609	3.21829757089836	Jitter2	Att	Val	Word	Fem	1	0.447488518197133
295.536025840142	0.5	cue	Att	Inval	CueFace2	Mas	1	0.590903696291207
296.05305494104	3.23597500912911	Jitter1	Att	Inval	CueFace2	Mas	1	0.590903696291207
299.272000849271	0.5	target	Att	Inval	Word	Mas	1	0.590903696291207
299.788906714846	5.31829862394807	Jitter2	Att	Inval	Word	Mas	1	0.590903696291207
305.126129218355	0.5	cue	Att	Inval	CueFace2	Fem	1	0.51695111826848
305.643154050131	3.93648869835306	Jitter1	Att	Inval	CueFace2	Fem	1	0.51695111826848
309.562617916708	0.5	target	Att	Inval	Word	Fem	1	0.51695111826848
310.079505282754	3.21828561735492	Jitter2	Att	Inval	Word	Fem	1	0.51695111826848
313.315270677991	0.5	cue	Att	Inval	CueName2	Fem	1	0.442277627837029
313.8322687566	6.02125240102396	Jitter1	Att	Inval	CueName2	Fem	1	0.442277627837029
319.836523079015	0.5	target	Att	Inval	Face	Fem	1	0.442277627837029
320.353509204084	3.91832173413059	Jitter2	Att	Inval	Face	Fem	1	0.442277627837029
324.289661922536	0.5	cue	Att	Val	CueFace2	Mas	1	0.649618923933303
324.806693869512	2.5354667274587	Jitter1	Att	Val	CueFace2	Mas	1	0.649618923933303
327.325128649994	0.5	target	Att	Val	Face	Mas	1	0.649618923933303
327.842028538798	4.61845234080101	Jitter2	Att	Val	Face	Mas	1	0.649618923933303
332.478766098502	0.5	cue	Att	Inval	CueFace2	Fem	0	0.516967340929114
332.995804591468	4.63696311165768	Jitter1	Att	Inval	CueFace2	Fem	0	0.516967340929114
337.61572921016	0.5	target	Att	Inval	Word	Fem	0	0.516967340929114
338.132632798868	3.91842305462342	Jitter2	Att	Inval	Word	Fem	0	0.516967340929114
342.068870615149	0.5	cue	Att	Inval	CueName2	Mas	1	0.49303748886814
342.585893454667	5.32078538753558	Jitter1	Att	Inval	CueName2	Mas	1	0.49303748886814
347.889656002684	0.5	target	Att	Inval	Face	Mas	1	0.49303748886814
348.406551337757	6.01841414639057	Jitter2	Att	Inval	Face	Mas	1	0.49303748886814
354.444271023222	0.5	cue	Att	Val	CueName2	Mas	1	0.493959050014382
354.96131634678	3.93645283772639	Jitter1	Att	Val	CueName2	Mas	1	0.493959050014382
358.880723860948	0.5	target	Att	Val	Word	Mas	1	0.493959050014382
359.397632003387	4.6183652507134	Jitter2	Att	Val	Word	Mas	1	0.493959050014382
364.034366432406	0.5	cue	Att	Inval	CueName2	Fem	1	0.447828909527743
364.551400940858	3.93646678352525	Jitter1	Att	Inval	CueName2	Fem	1	0.447828909527743
368.470833215932	0.5	target	Att	Inval	Face	Fem	1	0.447828909527743
368.987858047709	4.61830491378714	Jitter2	Att	Inval	Face	Fem	1	0.447828909527743
373.624468387578	0.5	cue	Att	Val	CueFace2	Mas	1	0.537662906139303
374.141510295842	3.93647162186608	Jitter1	Att	Val	CueFace2	Mas	1	0.537662906139303
378.060940009444	0.5	target	Att	Val	Face	Mas	1	0.537662906139303
378.577829083137	6.01844716093547	Jitter2	Att	Val	Face	Mas	1	0.537662906139303
384.615557022236	0.5	cue	Att	Inval	CueName2	Mas	1	0.557769901723077
385.132591815298	6.02128029262167	Jitter1	Att	Inval	CueName2	Mas	1	0.557769901723077
391.136837314858	0.5	target	Att	Inval	Face	Mas	1	0.557769901723077
391.653732649931	3.21842279847988	Jitter2	Att	Inval	Face	Mas	1	0.557769901723077
394.88950857567	0.5	cue	Att	Inval	CueName2	Mas	1	0.416617927523475
395.406437209895	3.93642494613232	Jitter1	Att	Inval	CueName2	Mas	1	0.416617927523475
399.325933521803	0.5	target	Att	Inval	Face	Mas	1	0.416617927523475
399.84305255887	5.31820982620775	Jitter2	Att	Inval	Face	Mas	1	0.416617927523475
405.180075267468	0.5	cue	Att	Inval	CueFace2	Mas	1	0.550981143856916
405.697029231818	2.53546274294422	Jitter1	Att	Inval	CueFace2	Mas	1	0.550981143856916
408.215538010412	0.5	target	Att	Inval	Word	Mas	1	0.550981143856916
408.732453268058	3.9184148009881	Jitter2	Att	Inval	Word	Mas	1	0.550981143856916
412.66868766904	0.5	cue	Att	Val	CueFace2	Fem	1	0.566314122570475
413.185720754453	2.53547925021485	Jitter1	Att	Val	CueFace2	Fem	1	0.566314122570475
415.704166919255	0.5	target	Att	Val	Face	Fem	1	0.566314122570475
416.221069084924	6.01843776886744	Jitter2	Att	Val	Face	Fem	1	0.566314122570475
422.258709933933	0.5	cue	Att	Val	CueFace2	Mas	1	0.482724713067
422.775811609907	4.637051340178	Jitter1	Att	Val	CueFace2	Mas	1	0.482724713067
427.395761274111	0.5	target	Att	Val	Face	Mas	1	0.482724713067
427.912635832792	2.51842766527625	Jitter2	Att	Val	Face	Mas	1	0.482724713067
430.447900630777	0.5	cue	Att	Inval	CueFace2	Mas	1	0.461588289854262
430.964935708445	4.63695315036966	Jitter1	Att	Inval	CueFace2	Mas	1	0.461588289854262
435.584853781147	0.5	target	Att	Inval	Word	Mas	1	0.461588289854262
436.101829375715	4.6183530125636	Jitter2	Att	Inval	Word	Mas	1	0.461588289854262
440.738420077625	0.5	cue	Att	Inval	CueName2	Mas	1	0.531913821792841
441.255555052747	3.23604103821708	Jitter1	Att	Inval	CueName2	Mas	1	0.531913821792841
444.474461115842	0.5	target	Att	Inval	Face	Mas	1	0.531913821792841
444.991334536087	2.51846324129292	Jitter2	Att	Inval	Face	Mas	1	0.531913821792841
447.526619541251	0.5	cue	Att	Inval	CueFace2	Fem	1	0.389818371626461
448.043645511461	6.03795036035808	Jitter1	Att	Inval	CueFace2	Fem	1	0.389818371626461
454.06456990161	0.5	target	Att	Inval	Word	Fem	1	0.389818371626461
454.581595017993	4.61827673757944	Jitter2	Att	Inval	Word	Fem	1	0.389818371626461
459.218142174857	0.5	cue	Att	Val	CueName2	Fem	1	0.622682186916791
459.735227912774	5.3375337225043	Jitter1	Att	Val	CueName2	Fem	1	0.622682186916791
465.055675897362	0.5	target	Att	Val	Word	Fem	1	0.622682186916791
465.57255700203	4.61844266412663	Jitter2	Att	Val	Word	Fem	1	0.622682186916791
