onset	duration	section	btype	validity	stim	gender	accuracy	reaction_time
10.0715513391806	0.5	cue	Exp	Inval	CueFace2	Fem	1	0.567249629511934
10.5885608021181	4.63695087350607	Jitter1	Exp	Inval	CueFace2	Fem	1	0.567249629511934
15.2085022126867	0.5	target	Exp	Inval	Word	Fem	1	0.567249629511934
15.7254080782604	2.51901196578001	Jitter2	Exp	Inval	Word	Fem	1	0.567249629511934
18.2606680379085	0.5	cue	Exp	Val	CueName1	Mas	1	0.561205406529552
18.7776951465494	6.03785928575417	Jitter1	Exp	Val	CueName1	Mas	1	0.561205406529552
24.7985273236627	0.5	target	Exp	Val	Word	Mas	1	0.561205406529552
25.3154992183245	6.01844289181281	Jitter2	Exp	Val	Word	Mas	1	0.561205406529552
31.3532391109638	0.5	cue	Exp	Val	CueFace2	Mas	1	0.497608295529062
31.8702704887273	5.32077997998204	Jitter1	Exp	Val	CueFace2	Mas	1	0.497608295529062
37.1740190909459	0.5	target	Exp	Val	Face	Mas	1	0.497608295529062
37.6909013340446	3.2185329418262	Jitter2	Exp	Val	Face	Mas	1	0.497608295529062
40.9266553449561	0.5	cue	Exp	Inval	CueName1	Mas	1	0.516979009864372
41.443702945382	6.02127460045995	Jitter1	Exp	Inval	CueName1	Mas	1	0.516979009864372
47.447929945416	0.5	target	Exp	Inval	Face	Mas	1	0.516979009864372
47.96482357284	6.01847761400495	Jitter2	Exp	Inval	Face	Mas	1	0.516979009864372
54.0025452505597	0.5	cue	Exp	Val	CueFace2	Fem	1	0.520570195323671
54.5195780513623	3.93646849117613	Jitter1	Exp	Val	CueFace2	Fem	1	0.520570195323671
58.4390137417358	0.5	target	Exp	Val	Face	Fem	1	0.520570195323671
58.9559181842687	6.01842524610765	Jitter2	Exp	Val	Face	Fem	1	0.520570195323671
64.9936421388538	0.5	cue	Exp	Inval	CueFace2	Mas	1	0.536498005038084
65.5106857547653	5.33744720163304	Jitter1	Exp	Inval	CueFace2	Mas	1	0.536498005038084
70.8310893404869	0.5	target	Exp	Inval	Word	Mas	1	0.536498005038084
71.3479915061562	5.31831598504323	Jitter2	Exp	Inval	Word	Mas	1	0.536498005038084
76.6852222633006	0.5	cue	Exp	Inval	CueName1	Fem	0	0.534832478229873
77.2022553487132	2.53549148836646	Jitter1	Exp	Inval	CueName1	Fem	0	0.534832478229873
79.7207137516671	0.5	target	Exp	Inval	Face	Fem	0	0.534832478229873
80.2376056714438	3.91843614659956	Jitter2	Exp	Inval	Face	Fem	0	0.534832478229873
84.1738491798878	0.5	cue	Exp	Val	CueFace2	Fem	1	0.452951002147529
84.6908859652049	5.32077258016943	Jitter1	Exp	Val	CueFace2	Fem	1	0.452951002147529
89.9946217600573	0.5	target	Exp	Val	Face	Fem	1	0.452951002147529
90.5115899548127	2.51834911343212	Jitter2	Exp	Val	Face	Fem	1	0.452951002147529
93.0466956568525	0.5	cue	Exp	Val	CueFace2	Mas	1	0.644208807882023
93.5637688720108	3.93653565869499	Jitter1	Exp	Val	CueFace2	Mas	1	0.644208807882023
97.4832313155475	0.5	target	Exp	Val	Face	Mas	1	0.644208807882023
98.0001425886767	4.61841704939252	Jitter2	Exp	Val	Face	Mas	1	0.644208807882023
102.636873602396	0.5	cue	Exp	Val	CueFace2	Fem	0	0.458247844164362
103.15389871878	4.6202938977458	Jitter1	Exp	Val	CueFace2	Fem	0	0.458247844164362
107.757167500142	0.5	target	Exp	Val	Face	Fem	0	0.458247844164362
108.274204000851	4.6183652507134	Jitter2	Exp	Val	Face	Fem	0	0.458247844164362
112.910790433638	0.5	cue	Exp	Val	CueFace2	Mas	1	0.525163770636937
113.42782323444	2.53549091915011	Jitter1	Exp	Val	CueFace2	Mas	1	0.525163770636937
115.946281352788	0.5	target	Exp	Val	Face	Mas	1	0.525163770636937
116.463165303536	4.61850214722654	Jitter2	Exp	Val	Face	Mas	1	0.525163770636937
121.099906278541	0.5	cue	Exp	Val	CueFace2	Fem	1	0.499546476936303
121.616917449126	3.23596846314103	Jitter1	Exp	Val	CueFace2	Fem	1	0.499546476936303
124.835874741682	0.5	target	Exp	Val	Face	Fem	1	0.499546476936303
125.352776338135	5.31857725531336	Jitter2	Exp	Val	Face	Fem	1	0.499546476936303
130.690005103024	0.5	cue	Exp	Val	CueName1	Fem	1	0.451415541254391
131.20697329778	6.03794352976183	Jitter1	Exp	Val	CueName1	Fem	1	0.451415541254391
137.227948632786	0.5	target	Exp	Val	Word	Fem	1	0.451415541254391
137.744898043406	5.31838059109032	Jitter2	Exp	Val	Word	Fem	1	0.451415541254391
143.082086678547	0.5	cue	Exp	Val	CueName1	Fem	1	0.49782829761898
143.599146517123	2.53541407495322	Jitter1	Exp	Val	CueName1	Fem	1	0.49782829761898
146.1175007535	0.5	target	Exp	Val	Word	Fem	1	0.49782829761898
146.634458986971	3.21844385948134	Jitter2	Exp	Val	Word	Fem	1	0.49782829761898
149.870210721017	0.5	cue	Exp	Val	CueFace2	Fem	1	0.516956525822025
150.387254906147	6.0212814310562	Jitter1	Exp	Val	CueFace2	Fem	1	0.516956525822025
156.391492152074	0.5	target	Exp	Val	Face	Fem	1	0.516956525822025
156.908384925673	3.21848142775525	Jitter2	Exp	Val	Face	Fem	1	0.516956525822025
160.144120152449	0.5	cue	Exp	Val	CueName1	Fem	1	0.582155696018162
160.66115153021	4.63697022685847	Jitter1	Exp	Val	CueName1	Fem	1	0.582155696018162
165.281090379307	0.5	target	Exp	Val	Word	Fem	1	0.582155696018162
165.797992260366	6.0184346381775	Jitter2	Exp	Val	Word	Fem	1	0.582155696018162
171.835712799653	0.5	cue	Exp	Val	CueName1	Mas	1	0.523492551661548
172.35275271566	3.23598155511718	Jitter1	Exp	Val	CueName1	Mas	1	0.523492551661548
175.57169435477	0.5	target	Exp	Val	Word	Mas	1	0.523492551661548
176.088589405235	3.91842333923341	Jitter2	Exp	Val	Word	Mas	1	0.523492551661548
180.024822383179	0.5	cue	Exp	Val	CueFace2	Mas	1	0.516889642911337
180.541851484075	6.02135770603491	Jitter1	Exp	Val	CueFace2	Mas	1	0.516889642911337
186.546180089214	0.5	target	Exp	Val	Face	Mas	1	0.516889642911337
187.06300484147	3.91853348258155	Jitter2	Exp	Val	Face	Mas	1	0.516889642911337
190.999239242454	0.5	cue	Exp	Val	CueFace2	Fem	1	0.484457976612248
191.516265212662	2.53547782717578	Jitter1	Exp	Val	CueFace2	Fem	1	0.484457976612248
194.03471706963	0.5	target	Exp	Val	Face	Fem	1	0.484457976612248
194.551609274013	3.91856222800379	Jitter2	Exp	Val	Face	Fem	1	0.484457976612248
198.487855628538	0.5	cue	Exp	Val	CueName1	Fem	1	0.493302459042752
199.004910344169	6.03795491408709	Jitter1	Exp	Val	CueName1	Fem	1	0.493302459042752
205.025810542626	0.5	target	Exp	Val	Word	Fem	1	0.493302459042752
205.542708154564	5.31855277901377	Jitter2	Exp	Val	Word	Fem	1	0.493302459042752
210.879934073371	0.5	cue	Exp	Val	CueName1	Mas	1	0.523800213059076
211.396962889661	2.53540610592609	Jitter1	Exp	Val	CueName1	Mas	1	0.523800213059076
213.915340179297	0.5	target	Exp	Val	Word	Mas	1	0.523800213059076
214.432315204649	4.61853886167592	Jitter2	Exp	Val	Word	Mas	1	0.523800213059076
219.069127900904	0.5	cue	Exp	Val	CueFace2	Mas	1	0.485523549472418
219.586025512843	3.93641726171154	Jitter1	Exp	Val	CueFace2	Mas	1	0.485523549472418
223.505545162616	0.5	target	Exp	Val	Face	Mas	1	0.485523549472418
224.022408906187	2.51851902448834	Jitter2	Exp	Val	Face	Mas	1	0.485523549472418
226.557665735145	0.5	cue	Exp	Val	CueName1	Fem	1	0.524961129643998
227.074701097421	3.93645966832264	Jitter1	Exp	Val	CueName1	Fem	1	0.524961129643998
230.994125403467	0.5	target	Exp	Val	Word	Fem	1	0.524961129643998
231.51103013061	3.91846346898092	Jitter2	Exp	Val	Word	Fem	1	0.524961129643998
235.447271646797	0.5	cue	Exp	Val	CueName1	Fem	1	0.431801202355928
235.964319816439	3.23598639345437	Jitter1	Exp	Val	CueName1	Fem	1	0.431801202355928
239.183258040252	0.5	target	Exp	Val	Word	Fem	1	0.431801202355928
239.70028827958	4.61845205619466	Jitter2	Exp	Val	Word	Fem	1	0.431801202355928
244.336801852685	0.5	cue	Exp	Inval	CueName1	Fem	1	0.601674121977339
244.853913205334	3.93653765095223	Jitter1	Exp	Inval	CueName1	Fem	1	0.601674121977339
248.773339503638	0.5	target	Exp	Inval	Face	Fem	1	0.601674121977339
249.290248784509	4.61847140954887	Jitter2	Exp	Inval	Face	Fem	1	0.601674121977339
253.926983213529	0.5	cue	Exp	Val	CueFace2	Mas	1	0.463011615142022
254.444010606776	4.63695685027596	Jitter1	Exp	Val	CueFace2	Mas	1	0.463011615142022
259.063940063805	0.5	target	Exp	Val	Face	Mas	1	0.463011615142022
259.580837391135	6.01855275055277	Jitter2	Exp	Val	Face	Mas	1	0.463011615142022
265.618564476408	0.5	cue	Exp	Val	CueName1	Fem	1	0.51703991600516
266.135598131035	5.33737747264058	Jitter1	Exp	Val	CueName1	Fem	1	0.51703991600516
271.455941949049	0.5	target	Exp	Val	Word	Fem	1	0.51703991600516
271.972918966656	2.51854065470798	Jitter2	Exp	Val	Word	Fem	1	0.51703991600516
274.508170388061	0.5	cue	Exp	Val	CueName1	Fem	1	0.516970471622699
275.02512890614	3.93646052214717	Jitter1	Exp	Val	CueName1	Fem	1	0.516970471622699
278.944630910208	0.5	target	Exp	Val	Word	Fem	1	0.516970471622699
279.461537914216	2.51845783373938	Jitter2	Exp	Val	Word	Fem	1	0.516970471622699
281.996821211731	0.5	cue	Exp	Val	CueName1	Mas	0	0.64458819052561
282.513837220655	5.33741589473902	Jitter1	Exp	Val	CueName1	Mas	0	0.64458819052561
287.83423710647	0.5	target	Exp	Val	Word	Mas	0	0.64458819052561
288.35114951803	5.31841161337798	Jitter2	Exp	Val	Word	Mas	0	0.64458819052561
293.688373159974	0.5	cue	Exp	Val	CueFace2	Fem	1	0.541157324831147
294.205405106952	6.02128256948708	Jitter1	Exp	Val	CueFace2	Fem	1	0.541157324831147
300.209655729461	0.5	target	Exp	Val	Face	Fem	1	0.541157324831147
300.72655163375	3.21837156901347	Jitter2	Exp	Val	Face	Fem	1	0.541157324831147
303.962290275822	0.5	cue	Exp	Val	CueName1	Mas	0	0.456052946221462
304.479327914964	3.9364676373516	Jitter1	Exp	Val	CueName1	Mas	0	0.456052946221462
308.398757913174	0.5	target	Exp	Val	Word	Mas	0	0.456052946221462
308.915783314165	3.21838352255509	Jitter2	Exp	Val	Word	Mas	0	0.456052946221462
312.151403559254	0.5	cue	Exp	Inval	CueFace2	Fem	1	0.516965633283689
312.668430667893	2.53548437316203	Jitter1	Exp	Inval	CueFace2	Fem	1	0.516965633283689
315.186887932416	0.5	target	Exp	Inval	Word	Fem	1	0.516965633283689
315.703790382693	6.01860255697648	Jitter2	Exp	Inval	Word	Fem	1	0.516965633283689
321.741513198846	0.5	cue	Exp	Val	CueName1	Mas	1	0.528353089406664
322.258537176796	4.63696652695216	Jitter1	Exp	Val	CueName1	Mas	1	0.528353089406664
326.878479725798	0.5	target	Exp	Val	Word	Mas	1	0.528353089406664
327.395362253505	2.51859700711793	Jitter2	Exp	Val	Word	Mas	1	0.528353089406664
329.93061509795	0.5	cue	Exp	Val	CueFace2	Mas	1	0.540169165382395
330.447644198846	3.23600176229411	Jitter1	Exp	Val	CueFace2	Mas	1	0.540169165382395
333.666616860244	0.5	target	Exp	Val	Face	Mas	1	0.540169165382395
334.183461250461	5.3185755476643	Jitter2	Exp	Val	Face	Mas	1	0.540169165382395
339.520723599109	0.5	cue	Exp	Val	CueFace2	Mas	1	0.565998776753986
340.037748715493	3.23597500912911	Jitter1	Exp	Val	CueFace2	Mas	1	0.565998776753986
343.256698608238	0.5	target	Exp	Val	Face	Mas	1	0.565998776753986
343.773596504785	2.51842766527625	Jitter2	Exp	Val	Face	Mas	1	0.565998776753986
346.308897732613	0.5	cue	Exp	Val	CueName1	Mas	1	0.58231023823646
346.825887557587	2.53543912046916	Jitter1	Exp	Val	CueName1	Mas	1	0.58231023823646
349.344336853083	0.5	target	Exp	Val	Word	Mas	1	0.58231023823646
349.861221088438	6.01846822193693	Jitter2	Exp	Val	Word	Mas	1	0.58231023823646
355.898939920076	0.5	cue	Exp	Inval	CueFace2	Fem	1	0.567226860859591
356.415900145805	3.93647190647425	Jitter1	Exp	Inval	CueFace2	Fem	1	0.567226860859591
360.335411826551	0.5	target	Exp	Inval	Word	Fem	1	0.567226860859591
360.852315415259	3.21853351104255	Jitter2	Exp	Inval	Word	Fem	1	0.567226860859591
364.088058611062	0.5	cue	Exp	Val	CueName1	Mas	1	0.654562567255198
364.605029082682	3.23599066257702	Jitter1	Exp	Val	CueName1	Mas	1	0.654562567255198
367.824049273639	0.5	target	Exp	Val	Word	Mas	1	0.654562567255198
368.34094802401	3.21843019828884	Jitter2	Exp	Val	Word	Mas	1	0.654562567255198
371.576649951632	0.5	cue	Exp	Inval	CueName1	Fem	1	0.589938874711152
372.093716051586	3.23599493169786	Jitter1	Exp	Inval	CueName1	Fem	1	0.589938874711152
375.31264488333	0.5	target	Exp	Inval	Face	Fem	1	0.589938874711152
375.829547333606	5.31846910422246	Jitter2	Exp	Inval	Face	Fem	1	0.589938874711152
381.166704946461	0.5	cue	Exp	Inval	CueName1	Mas	1	0.446813427697634
381.683804630176	4.63703340986467	Jitter1	Exp	Inval	CueName1	Mas	1	0.446813427697634
386.303738356326	0.5	target	Exp	Inval	Face	Mas	1	0.446813427697634
386.820723342962	3.21844101339775	Jitter2	Exp	Inval	Face	Mas	1	0.446813427697634
390.056391686825	0.5	cue	Exp	Val	CueName1	Fem	1	0.480756078588456
390.573426195277	5.33737434195064	Jitter1	Exp	Val	CueName1	Fem	1	0.480756078588456
395.893766028776	0.5	target	Exp	Val	Word	Fem	1	0.480756078588456
396.410736500397	4.61857273004352	Jitter2	Exp	Val	Word	Fem	1	0.480756078588456
401.047498536404	0.5	cue	Exp	Val	CueFace2	Mas	1	0.590700201473737
401.564446239374	4.62026600614809	Jitter1	Exp	Val	CueFace2	Mas	1	0.590700201473737
406.167764542552	0.5	target	Exp	Val	Face	Mas	1	0.590700201473737
406.684666992827	6.01855331976913	Jitter2	Exp	Val	Face	Mas	1	0.590700201473737
412.722390947412	0.5	cue	Exp	Val	CueName1	Mas	1	0.675067729622242
413.239426594297	4.63694375830164	Jitter1	Exp	Val	CueName1	Mas	1	0.675067729622242
417.859334705714	0.5	target	Exp	Val	Word	Mas	1	0.675067729622242
418.37624057129	3.91859011959968	Jitter2	Exp	Val	Word	Mas	1	0.675067729622242
422.312484364342	0.5	cue	Exp	Val	CueFace2	Fem	1	0.481165629696989
422.82951631132	5.32078766439918	Jitter1	Exp	Val	CueFace2	Fem	1	0.481165629696989
428.133272028741	0.5	target	Exp	Val	Face	Fem	1	0.481165629696989
428.65018017118	5.31845003547642	Jitter2	Exp	Val	Face	Fem	1	0.481165629696989
433.987391859582	0.5	cue	Exp	Inval	CueFace2	Mas	1	0.610978815762792
434.504368877189	3.23599037796703	Jitter1	Exp	Inval	CueFace2	Mas	1	0.610978815762792
437.723382237549	0.5	target	Exp	Inval	Word	Mas	1	0.610978815762792
438.240258503878	4.61857358386806	Jitter2	Exp	Inval	Word	Mas	1	0.610978815762792
442.876920927038	0.5	cue	Exp	Val	CueFace2	Fem	1	0.589879107001252
443.394014349373	2.5355469869537	Jitter1	Exp	Val	CueFace2	Fem	1	0.589879107001252
445.912467913991	0.5	target	Exp	Val	Face	Fem	1	0.589879107001252
446.429379756337	3.91841394716357	Jitter2	Exp	Val	Face	Fem	1	0.589879107001252
450.365615864968	0.5	cue	Exp	Inval	CueName1	Mas	1	0.54792758316762
450.882648950379	5.32078481831923	Jitter1	Exp	Inval	CueName1	Mas	1	0.54792758316762
456.186400683288	0.5	target	Exp	Inval	Face	Mas	1	0.54792758316762
456.703296302969	2.51844474176505	Jitter2	Exp	Inval	Face	Mas	1	0.54792758316762
459.23855740105	0.5	cue	Exp	Inval	CueFace2	Mas	1	0.477755170404635
459.755586786556	6.03793584534287	Jitter1	Exp	Inval	CueFace2	Mas	1	0.477755170404635
465.776493246392	0.5	target	Exp	Inval	Word	Mas	1	0.477755170404635
466.293387158425	3.91851925217452	Jitter2	Exp	Inval	Word	Mas	1	0.477755170404635
