onset	duration	section	btype	validity	stim	gender	accuracy	reaction_time
10.0565151486699	0.5	cue	Exp	Val	CueFace1	Mas	1	0.583243540462718
10.5735521717925	3.23590223477549	Jitter1	Exp	Val	CueFace1	Mas	1	0.583243540462718
13.7924173834454	0.5	target	Exp	Val	Face	Mas	1	0.583243540462718
14.3093129578938	3.91853467143301	Jitter2	Exp	Val	Face	Mas	1	0.583243540462718
18.2455008222241	0.5	cue	Exp	Val	CueName1	Mas	1	0.624042233102955
18.7625253227288	6.03790056015896	Jitter1	Exp	Val	CueName1	Mas	1	0.624042233102955
24.7834013823831	0.5	target	Exp	Val	Word	Mas	1	0.624042233102955
25.3002642272604	5.31830391371659	Jitter2	Exp	Val	Word	Mas	1	0.624042233102955
30.6374226514836	0.5	cue	Exp	Val	CueName1	Fem	1	0.662472158519449
31.1544488596173	2.53547117207563	Jitter1	Exp	Val	CueName1	Fem	1	0.662472158519449
33.6728938235592	0.5	target	Exp	Val	Word	Fem	1	0.662472158519449
34.1897595144874	3.91846038953372	Jitter2	Exp	Val	Word	Fem	1	0.662472158519449
38.1259317255426	0.5	cue	Exp	Val	CueName1	Mas	1	0.628895032561559
38.6429832635204	3.93641810975714	Jitter1	Exp	Val	CueName1	Mas	1	0.628895032561559
42.5623498352998	0.5	target	Exp	Val	Word	Mas	1	0.628895032561559
43.0792448405391	4.61843921492255	Jitter2	Exp	Val	Word	Mas	1	0.628895032561559
47.7159488644556	0.5	cue	Exp	Val	CueName1	Mas	1	0.554712745350116
48.2329209976433	3.2524602677222	Jitter1	Exp	Val	CueName1	Mas	1	0.554712745350116
51.4684091321778	0.5	target	Exp	Val	Word	Mas	1	0.554712745350116
51.9854228176919	6.01837381269979	Jitter2	Exp	Val	Word	Mas	1	0.554712745350116
58.0230800405971	0.5	cue	Exp	Val	CueName1	Fem	0	0.522527337730935
58.5401452396127	5.3372873502758	Jitter1	Exp	Val	CueName1	Fem	0	0.522527337730935
63.8603673908729	0.5	target	Exp	Val	Word	Fem	0	0.522527337730935
64.3773452161604	3.21847387980961	Jitter2	Exp	Val	Word	Fem	0	0.522527337730935
67.6129981369759	0.5	cue	Exp	Val	CueFace1	Fem	1	0.545464222022929
68.1300422752229	4.62031191567075	Jitter1	Exp	Val	CueFace1	Fem	1	0.545464222022929
72.7333100526466	0.5	target	Exp	Val	Face	Fem	1	0.545464222022929
73.2501578134597	3.21839049055052	Jitter2	Exp	Val	Face	Fem	1	0.545464222022929
76.4858525712079	0.5	cue	Exp	Inval	CueFace1	Mas	1	0.704862931395837
77.0028554417331	3.2359486253863	Jitter1	Exp	Inval	CueFace1	Mas	1	0.704862931395837
80.2218011965942	0.5	target	Exp	Inval	Word	Mas	1	0.704862931395837
80.7386529418764	2.51843414895484	Jitter2	Exp	Inval	Word	Mas	1	0.704862931395837
83.2738779306492	0.5	cue	Exp	Val	CueFace1	Fem	1	0.568379760943571
83.7909533754446	3.9363572042912	Jitter1	Exp	Val	CueFace1	Fem	1	0.568379760943571
87.7102351349404	0.5	target	Exp	Val	Face	Fem	1	0.568379760943571
88.2272047066836	3.91846295097821	Jitter2	Exp	Val	Face	Fem	1	0.568379760943571
92.163392001803	0.5	cue	Exp	Val	CueName1	Fem	1	0.589681874249436
92.6804190637522	5.33732918720852	Jitter1	Exp	Val	CueName1	Fem	1	0.589681874249436
98.0007211890115	0.5	target	Exp	Val	Word	Fem	1	0.589681874249436
98.5176395318595	3.91846750465811	Jitter2	Exp	Val	Word	Fem	1	0.589681874249436
102.470435519612	0.5	cue	Exp	Val	CueFace1	Fem	1	0.526499000183321
102.98754027872	6.02134451944767	Jitter1	Exp	Val	CueFace1	Fem	1	0.526499000183321
108.991780039059	0.5	target	Exp	Val	Face	Fem	1	0.526499000183321
109.508617269488	5.31827545321903	Jitter2	Exp	Val	Face	Fem	1	0.526499000183321
114.845776547525	0.5	cue	Exp	Val	CueName1	Mas	1	0.634931788725225
115.362826662478	5.3373838313637	Jitter1	Exp	Val	CueName1	Mas	1	0.634931788725225
120.683160378889	0.5	target	Exp	Val	Word	Mas	1	0.634931788725225
121.20005196887	3.21845765732542	Jitter2	Exp	Val	Word	Mas	1	0.634931788725225
124.43569151325	0.5	cue	Exp	Val	CueName1	Fem	1	0.569268297682356
124.952848070465	4.63699204415207	Jitter1	Exp	Val	CueName1	Fem	1	0.569268297682356
129.572683557402	0.5	target	Exp	Val	Word	Fem	1	0.569268297682356
130.089546117675	5.31827033033005	Jitter2	Exp	Val	Word	Fem	1	0.569268297682356
135.426704826503	0.5	cue	Exp	Val	CueFace1	Mas	1	0.550461600811104
135.943767179468	5.32071850234024	Jitter1	Exp	Val	CueFace1	Mas	1	0.550461600811104
141.247423328843	0.5	target	Exp	Val	Face	Mas	1	0.550461600811104
141.764307803698	3.21836060702844	Jitter2	Exp	Val	Face	Mas	1	0.550461600811104
145.0000113842	0.5	cue	Exp	Val	CueFace1	Fem	1	0.746313938641833
145.516982094363	2.53545324196421	Jitter1	Exp	Val	CueFace1	Fem	1	0.746313938641833
148.035464626164	0.5	target	Exp	Val	Face	Fem	1	0.746313938641833
148.552342555104	3.91827994997766	Jitter2	Exp	Val	Face	Fem	1	0.746313938641833
152.48852671957	0.5	cue	Exp	Val	CueFace1	Mas	1	0.71585152955231
153.005588503325	6.02120506300889	Jitter1	Exp	Val	CueFace1	Mas	1	0.71585152955231
159.009731782578	0.5	target	Exp	Val	Face	Mas	1	0.71585152955231
159.526612272964	2.51844097947287	Jitter2	Exp	Val	Face	Mas	1	0.71585152955231
162.061860599344	0.5	cue	Exp	Val	CueName1	Mas	1	0.684178695495575
162.578856639351	2.5354441346044	Jitter1	Exp	Val	CueName1	Mas	1	0.684178695495575
165.097304733948	0.5	target	Exp	Val	Word	Mas	1	0.684178695495575
165.614167009617	4.61846198332023	Jitter2	Exp	Val	Word	Mas	1	0.684178695495575
170.250860218543	0.5	cue	Exp	Val	CueName1	Fem	1	0.626626730896533
170.767862519859	3.23583592181603	Jitter1	Exp	Val	CueName1	Fem	1	0.626626730896533
173.986696140359	0.5	target	Exp	Val	Word	Fem	1	0.626626730896533
174.503657743162	3.21843261208778	Jitter2	Exp	Val	Word	Fem	1	0.626626730896533
177.739335424611	0.5	cue	Exp	Val	CueFace1	Mas	1	0.517494383320809
178.256386393377	3.93637200375088	Jitter1	Exp	Val	CueFace1	Mas	1	0.517494383320809
182.175707428361	0.5	target	Exp	Val	Face	Mas	1	0.517494383320809
182.69266646972	5.3181969022462	Jitter2	Exp	Val	Face	Mas	1	0.517494383320809
188.029764273082	0.5	cue	Exp	Inval	CueFace1	Mas	1	0.597373892958785
188.546832318149	6.03786839979693	Jitter1	Exp	Inval	CueFace1	Mas	1	0.597373892958785
194.567632672879	0.5	target	Exp	Inval	Word	Mas	1	0.597373892958785
195.084590860424	5.31840864834885	Jitter2	Exp	Inval	Word	Mas	1	0.597373892958785
200.421750138461	0.5	cue	Exp	Val	CueName1	Fem	1	0.567212026724519
200.93877036989	3.23591959567784	Jitter1	Exp	Val	CueName1	Fem	1	0.567212026724519
204.157669734139	0.5	target	Exp	Val	Word	Fem	1	0.567212026724519
204.674565023985	5.31840551769346	Jitter2	Exp	Val	Word	Fem	1	0.567212026724519
210.01173625543	0.5	cue	Exp	Inval	CueName1	Mas	1	0.492243091355704
210.528730303202	5.32070683353595	Jitter1	Exp	Inval	CueName1	Mas	1	0.492243091355704
215.832443088966	0.5	target	Exp	Inval	Face	Mas	1	0.492243091355704
216.349334678946	3.21838422924156	Jitter2	Exp	Inval	Face	Mas	1	0.492243091355704
219.585032282743	0.5	cue	Exp	Val	CueFace1	Fem	1	0.567138029429771
220.102064467581	3.93642693251059	Jitter1	Exp	Val	CueFace1	Fem	1	0.567138029429771
224.021459215253	0.5	target	Exp	Val	Face	Fem	1	0.567138029429771
224.538346536159	4.61835895631884	Jitter2	Exp	Val	Face	Fem	1	0.567138029429771
229.175008153932	0.5	cue	Exp	Inval	CueName1	Fem	1	0.658014106162227
229.692032939041	2.53544043473994	Jitter1	Exp	Inval	CueName1	Fem	1	0.658014106162227
232.210448588672	0.5	target	Exp	Inval	Face	Fem	1	0.658014106162227
232.727345870751	2.51827818542733	Jitter2	Exp	Inval	Face	Fem	1	0.658014106162227
235.262575413204	0.5	cue	Exp	Val	CueName1	Mas	1	0.564914979955574
235.779599059893	4.6368747869019	Jitter1	Exp	Val	CueName1	Mas	1	0.564914979955574
240.399450200106	0.5	target	Exp	Val	Word	Mas	1	0.564914979955574
240.916358297174	2.51838491229319	Jitter2	Exp	Val	Word	Mas	1	0.564914979955574
243.451563932809	0.5	cue	Exp	Inval	CueName1	Mas	1	0.664926307232236
243.968596686856	3.23585527495379	Jitter1	Exp	Inval	CueName1	Mas	1	0.664926307232236
247.187419207763	0.5	target	Exp	Inval	Face	Mas	1	0.664926307232236
247.704386218062	6.01842361857052	Jitter2	Exp	Inval	Face	Mas	1	0.664926307232236
253.742038887285	0.5	cue	Exp	Val	CueName1	Fem	1	0.525165625866066
254.259068226074	4.63691548541465	Jitter1	Exp	Val	CueName1	Fem	1	0.525165625866066
258.8789543727	0.5	target	Exp	Val	Word	Fem	1	0.525165625866066
259.395822055862	6.01843357974394	Jitter2	Exp	Val	Word	Fem	1	0.525165625866066
265.433413535016	0.5	cue	Exp	Val	CueName1	Mas	1	0.62214733316614
265.950494102701	3.93643404763498	Jitter1	Exp	Val	CueName1	Mas	1	0.62214733316614
269.869847582651	0.5	target	Exp	Val	Word	Mas	1	0.62214733316614
270.386780724957	6.01840141938192	Jitter2	Exp	Val	Word	Mas	1	0.62214733316614
276.424418310118	0.5	cue	Exp	Inval	CueFace1	Fem	1	0.570496937365533
276.941459602316	4.63689670148597	Jitter1	Exp	Inval	CueFace1	Fem	1	0.570496937365533
281.561315011604	0.5	target	Exp	Inval	Word	Fem	1	0.570496937365533
282.078217985783	3.91832833282388	Jitter2	Exp	Inval	Word	Fem	1	0.570496937365533
286.014324737695	0.5	cue	Exp	Val	CueFace1	Fem	1	0.637406144393026
286.531421243257	3.23599444678803	Jitter1	Exp	Val	CueFace1	Fem	1	0.637406144393026
289.750319184483	0.5	target	Exp	Val	Face	Fem	1	0.637406144393026
290.267219881822	6.01827932384549	Jitter2	Exp	Val	Face	Fem	1	0.637406144393026
296.304829006483	0.5	cue	Exp	Val	CueName1	Fem	1	0.516967579509583
296.821901036019	3.93642351725066	Jitter1	Exp	Val	CueName1	Fem	1	0.516967579509583
300.741252523734	0.5	target	Exp	Val	Word	Fem	1	0.516967579509583
301.258170866582	2.51842333396598	Jitter2	Exp	Val	Word	Fem	1	0.516967579509583
303.793376502217	0.5	cue	Exp	Val	CueFace1	Mas	1	0.577765463867763
304.310362296445	4.62027434781339	Jitter1	Exp	Val	CueFace1	Mas	1	0.577765463867763
308.913650850031	0.5	target	Exp	Val	Face	Mas	1	0.577765463867763
309.430467019691	5.3184402395018	Jitter2	Exp	Val	Face	Mas	1	0.577765463867763
314.767653619805	0.5	cue	Exp	Val	CueFace1	Mas	1	0.56680532621067
315.284592738817	5.32075692401304	Jitter1	Exp	Val	CueFace1	Mas	1	0.56680532621067
320.588410543818	0.5	target	Exp	Val	Face	Mas	1	0.56680532621067
321.105252897136	2.51839031978852	Jitter2	Exp	Val	Face	Mas	1	0.56680532621067
323.640541352819	0.5	cue	Exp	Inval	CueFace1	Fem	1	0.557384901478144
324.1575359698	5.33722957546524	Jitter1	Exp	Inval	CueFace1	Fem	1	0.557384901478144
329.477770928284	0.5	target	Exp	Inval	Word	Fem	1	0.557384901478144
329.994746476734	6.01843898723746	Jitter2	Exp	Inval	Word	Fem	1	0.557384901478144
336.03242390659	0.5	cue	Exp	Val	CueFace1	Mas	1	0.545682229436352
336.549457229848	4.63684006509538	Jitter1	Exp	Val	CueFace1	Mas	1	0.545682229436352
341.169263971686	0.5	target	Exp	Val	Face	Mas	1	0.545682229436352
341.686190283473	6.01840711147997	Jitter2	Exp	Val	Face	Mas	1	0.545682229436352
347.723879666739	0.5	cue	Exp	Val	CueFace1	Fem	1	0.642225645071449
348.240884814106	5.32065987371607	Jitter1	Exp	Val	CueFace1	Fem	1	0.642225645071449
353.544539540455	0.5	target	Exp	Val	Face	Fem	1	0.642225645071449
354.061423161495	6.01845777116796	Jitter2	Exp	Val	Face	Fem	1	0.642225645071449
360.099062738891	0.5	cue	Exp	Val	CueFace1	Mas	1	0.524169223843273
360.61608410874	2.53539518254729	Jitter1	Exp	Val	CueFace1	Mas	1	0.524169223843273
363.134457921438	0.5	target	Exp	Val	Face	Mas	1	0.524169223843273
363.651403017155	3.21845908034993	Jitter2	Exp	Val	Face	Mas	1	0.524169223843273
366.887070452824	0.5	cue	Exp	Val	CueName1	Mas	1	0.517005147365126
367.404110606602	6.03783965469484	Jitter1	Exp	Val	CueName1	Mas	1	0.517005147365126
373.424910107518	0.5	target	Exp	Val	Word	Mas	1	0.517005147365126
373.941868010457	2.51843557197935	Jitter2	Exp	Val	Word	Mas	1	0.517005147365126
376.477122598148	0.5	cue	Exp	Inval	CueName1	Fem	1	0.547988952772357
376.994144252601	6.02119083276011	Jitter1	Exp	Inval	CueName1	Fem	1	0.547988952772357
382.998313430908	0.5	target	Exp	Inval	Face	Fem	1	0.547988952772357
383.51517314513	4.61846340634656	Jitter2	Exp	Inval	Face	Fem	1	0.547988952772357
388.151854400649	0.5	cue	Exp	Val	CueFace1	Fem	1	0.56695986671366
388.668853286705	2.53542478146483	Jitter1	Exp	Val	CueFace1	Fem	1	0.56695986671366
391.187279182113	0.5	target	Exp	Val	Face	Fem	1	0.56695986671366
391.704175325773	4.61844035334434	Jitter2	Exp	Val	Face	Fem	1	0.56695986671366
396.340890449283	0.5	cue	Exp	Inval	CueName1	Fem	1	0.456791272417831
396.857845506172	3.93640530253288	Jitter1	Exp	Inval	CueName1	Fem	1	0.456791272417831
400.777295751815	0.5	target	Exp	Inval	Face	Fem	1	0.456791272417831
401.294238001481	3.91835480108784	Jitter2	Exp	Inval	Face	Fem	1	0.456791272417831
405.230318854341	0.5	cue	Exp	Val	CueName1	Mas	1	0.680163488483231
405.747370107712	2.53548170245995	Jitter1	Exp	Val	CueName1	Mas	1	0.680163488483231
408.265800556801	0.5	target	Exp	Val	Word	Mas	1	0.680163488483231
408.782678770347	3.91853324840849	Jitter2	Exp	Val	Word	Mas	1	0.680163488483231
412.71890505635	0.5	cue	Exp	Val	CueName1	Fem	1	0.617045788954783
413.235893412022	6.03786014625257	Jitter1	Exp	Val	CueName1	Fem	1	0.617045788954783
419.256765202603	0.5	target	Exp	Val	Word	Fem	1	0.617045788954783
419.773630039714	4.61844433781334	Jitter2	Exp	Val	Word	Fem	1	0.617045788954783
424.410303326293	0.5	cue	Exp	Inval	CueFace1	Fem	1	0.586953081730826
424.927375355828	3.93645994668805	Jitter1	Exp	Inval	CueFace1	Fem	1	0.586953081730826
428.846763272981	0.5	target	Exp	Inval	Word	Fem	1	0.586953081730826
429.363610179978	3.21847729506953	Jitter2	Exp	Inval	Word	Fem	1	0.586953081730826
432.599328275333	0.5	cue	Exp	Val	CueFace1	Mas	1	0.529047637750409
433.11633456112	6.02118343303118	Jitter1	Exp	Val	CueFace1	Mas	1	0.529047637750409
439.120511708365	0.5	target	Exp	Val	Face	Mas	1	0.529047637750409
439.637395329404	4.61837887866932	Jitter2	Exp	Val	Face	Mas	1	0.529047637750409
444.274070608219	0.5	cue	Exp	Inval	CueFace1	Mas	1	0.883858401055477
444.791127838294	2.53547629496643	Jitter1	Exp	Inval	CueFace1	Mas	1	0.883858401055477
447.309546903185	0.5	target	Exp	Inval	Word	Mas	1	0.883858401055477
447.826404340567	4.61847052147095	Jitter2	Exp	Inval	Word	Mas	1	0.883858401055477
452.463076204122	0.5	cue	Exp	Val	CueFace1	Fem	0	0.730349022467635
452.98016502535	3.23586922059803	Jitter1	Exp	Val	CueFace1	Fem	0	0.730349022467635
456.19894542472	0.5	target	Exp	Val	Face	Fem	0	0.730349022467635
456.715901335423	2.51847655509664	Jitter2	Exp	Val	Face	Fem	0	0.730349022467635
459.251180114537	0.5	cue	Exp	Inval	CueName1	Mas	1	0.493176595680779
459.768143994181	4.63682981931561	Jitter1	Exp	Inval	CueName1	Mas	1	0.493176595680779
464.388009933853	0.5	target	Exp	Inval	Face	Mas	1	0.493176595680779
464.904936245639	5.31836481918253	Jitter2	Exp	Inval	Face	Mas	1	0.493176595680779
