onset	duration	section	btype	validity	stim	gender	accuracy	reaction_time
10.3176519440244	0.5	cue	Exp	Val	CueFace2	Fem	1	1.14873379623759
10.8345939066139	5.33735744374826	Jitter1	Exp	Val	CueFace2	Fem	1	1.14873379623759
16.1550093877727	0.5	target	Exp	Val	Face	Fem	1	1.14873379623759
16.6719502119327	3.92014914562333	Jitter2	Exp	Val	Face	Fem	1	1.14873379623759
20.6082323238215	0.5	cue	Exp	Inval	CueName2	Mas	1	1.09196146530667
21.1252175467248	2.53546406505211	Jitter1	Exp	Inval	CueName2	Mas	1	1.09196146530667
23.6436963888737	0.5	target	Exp	Inval	Face	Mas	1	1.09196146530667
24.1605415849726	3.91942538919329	Jitter2	Exp	Inval	Face	Mas	1	1.09196146530667
28.0967847056577	0.5	cue	Exp	Val	CueName2	Mas	1	1.13363167770603
28.6138684026955	3.26920964260989	Jitter1	Exp	Val	CueName2	Mas	1	1.13363167770603
31.8659943482676	0.5	target	Exp	Val	Word	Mas	1	1.13363167770603
32.3829619255166	4.61854108577108	Jitter2	Exp	Val	Word	Mas	1	1.13363167770603
37.0197053574198	0.5	cue	Exp	Val	CueFace2	Mas	1	1.01437295456299
37.536769416552	5.33743827222861	Jitter1	Exp	Val	CueFace2	Mas	1	1.01437295456299
42.8571436296484	0.5	target	Exp	Val	Face	Mas	1	1.01437295456299
43.3740767694107	5.31837826192032	Jitter2	Exp	Val	Face	Mas	1	1.01437295456299
48.711296605517	0.5	cue	Exp	Inval	CueFace2	Fem	1	1.16819097606913
49.2282459678968	3.23597718359997	Jitter1	Exp	Inval	CueFace2	Fem	1	1.16819097606913
52.4472737891169	0.5	target	Exp	Inval	Word	Fem	1	1.16819097606913
52.964132646367	3.91850126920644	Jitter2	Exp	Inval	Word	Fem	1	1.16819097606913
56.90038772056	0.5	cue	Exp	Val	CueFace2	Fem	1	0.97425356748181
57.4173143143539	5.32076939036824	Jitter1	Exp	Val	CueFace2	Fem	1	0.97425356748181
62.7211571109283	0.5	target	Exp	Val	Face	Fem	1	0.97425356748181
63.238006860744	3.91828183695816	Jitter2	Exp	Val	Face	Fem	1	0.97425356748181
67.1742098517966	0.5	cue	Exp	Val	CueFace2	Mas	1	1.81619233535412
67.6912568344892	4.63693767640279	Jitter1	Exp	Val	CueFace2	Mas	1	1.81619233535412
72.3111475281994	0.5	target	Exp	Val	Face	Mas	1	1.81619233535412
72.8280800987473	2.51832970791065	Jitter2	Exp	Val	Face	Mas	1	1.81619233535412
75.3632810443269	0.5	cue	Exp	Inval	CueFace2	Mas	1	1.44055876387074
75.880370433511	2.53554261667387	Jitter1	Exp	Inval	CueFace2	Mas	1	1.44055876387074
78.3988236610007	0.5	target	Exp	Inval	Word	Mas	1	1.44055876387074
78.9156924795075	5.3184565289348	Jitter2	Exp	Inval	Word	Mas	1	1.44055876387074
84.2528721859808	0.5	cue	Exp	Val	CueName2	Mas	1	1.05641856402553
84.7699479140133	6.03794911391742	Jitter1	Exp	Val	CueName2	Mas	1	1.05641856402553
90.7908212998982	0.5	target	Exp	Val	Word	Mas	1	1.05641856402553
91.3077111793473	3.21847596761518	Jitter2	Exp	Val	Word	Mas	1	1.05641856402553
94.5435114794941	0.5	cue	Exp	Val	CueFace2	Fem	0	1.52777383280409
95.0605581775794	3.23587671721407	Jitter1	Exp	Val	CueFace2	Fem	0	1.52777383280409
98.2793881967082	0.5	target	Exp	Val	Face	Fem	0	1.52777383280409
98.796337559088	5.318400745899	Jitter2	Exp	Val	Face	Fem	0	1.52777383280409
104.133520111634	0.5	cue	Exp	Val	CueName2	Mas	1	1.22811817920729
104.650569655793	5.33750885484551	Jitter1	Exp	Val	CueName2	Mas	1	1.22811817920729
109.97102896648	0.5	target	Exp	Val	Word	Mas	1	1.22811817920729
110.487882700798	3.91840934103993	Jitter2	Exp	Val	Word	Mas	1	1.22811817920729
114.424108745044	0.5	cue	Exp	Val	CueName2	Fem	1	0.997944281285072
114.94119471894	4.63700911284241	Jitter1	Exp	Val	CueName2	Fem	1	0.997944281285072
119.561117857886	0.5	target	Exp	Val	Word	Fem	1	0.997944281285072
120.077957931053	3.21840766185687	Jitter2	Exp	Val	Word	Fem	1	0.997944281285072
123.31372834743	0.5	cue	Exp	Val	CueFace2	Mas	1	1.26585853365168
123.830757684469	2.53542791992186	Jitter1	Exp	Val	CueFace2	Mas	1	1.26585853365168
126.349156267352	0.5	target	Exp	Val	Face	Mas	1	1.26585853365168
126.866061800204	3.21846686018034	Jitter2	Exp	Val	Face	Mas	1	1.26585853365168
130.101793225378	0.5	cue	Exp	Inval	CueName2	Fem	1	1.2172273952765
130.618870945662	3.23595697647988	Jitter1	Exp	Inval	CueName2	Fem	1	1.2172273952765
133.837750201858	0.5	target	Exp	Inval	Face	Fem	1	1.2172273952765
134.354628697014	6.01849065335318	Jitter2	Exp	Inval	Face	Fem	1	1.2172273952765
140.392358520987	0.5	cue	Exp	Inval	CueFace2	Fem	1	1.38968178908681
140.909408065145	4.63689953902167	Jitter1	Exp	Inval	CueFace2	Fem	1	1.38968178908681
145.529258060008	0.5	target	Exp	Inval	Word	Fem	1	1.38968178908681
146.046205999352	6.01840299429705	Jitter2	Exp	Inval	Word	Fem	1	1.38968178908681
152.083954322801	0.5	cue	Exp	Val	CueName2	Fem	1	1.36996049365689
152.600968291044	4.63694109169091	Jitter1	Exp	Val	CueName2	Fem	1	1.36996049365689
157.220895414492	0.5	target	Exp	Val	Word	Fem	1	1.36996049365689
157.73774601813	2.51845578895563	Jitter2	Exp	Val	Word	Fem	1	1.36996049365689
160.272999331457	0.5	cue	Exp	Val	CueFace2	Mas	1	1.18054350322564
160.790061682946	6.02129844692627	Jitter1	Exp	Val	CueFace2	Mas	1	1.18054350322564
166.794297778384	0.5	target	Exp	Val	Face	Mas	1	1.18054350322564
167.311126467258	6.01842320141668	Jitter2	Exp	Val	Face	Mas	1	1.18054350322564
173.348823845995	0.5	cue	Exp	Val	CueFace2	Mas	1	0.973376407703199
173.865926042509	3.93650766319479	Jitter1	Exp	Val	CueFace2	Mas	1	0.973376407703199
177.78533150919	0.5	target	Exp	Val	Face	Mas	1	0.973376407703199
178.302209719739	3.21840196971061	Jitter2	Exp	Val	Face	Mas	1	0.973376407703199
181.537918376327	0.5	cue	Exp	Val	CueName2	Fem	1	1.42680483024151
182.055036795458	6.03795395224233	Jitter1	Exp	Val	CueName2	Fem	1	1.42680483024151
188.075872328569	0.5	target	Exp	Val	Word	Fem	1	1.42680483024151
188.592773592311	5.31845311364668	Jitter2	Exp	Val	Word	Fem	1	1.42680483024151
193.92998460559	0.5	cue	Exp	Val	CueName2	Mas	1	1.31218748336823
194.447050941581	3.93642341942632	Jitter1	Exp	Val	CueName2	Mas	1	1.31218748336823
198.366408025016	0.5	target	Exp	Val	Word	Mas	1	1.31218748336823
198.883370479333	2.51836926832857	Jitter2	Exp	Val	Word	Mas	1	1.31218748336823
201.418555486902	0.5	cue	Exp	Inval	CueName2	Mas	1	0.90310628973657
201.935612715458	5.32083798073381	Jitter1	Exp	Inval	CueName2	Mas	1	0.90310628973657
207.239393467636	0.5	target	Exp	Inval	Face	Mas	1	0.90310628973657
207.756271678184	5.31842266066315	Jitter2	Exp	Inval	Face	Mas	1	0.90310628973657
213.093456507589	0.5	cue	Exp	Val	CueName2	Fem	1	1.09253665671213
213.610528251119	3.93648660225244	Jitter1	Exp	Val	CueName2	Fem	1	1.09253665671213
217.529943109842	0.5	target	Exp	Val	Word	Fem	1	1.09253665671213
218.046840673688	6.01842120916581	Jitter2	Exp	Val	Word	Fem	1	1.09253665671213
224.084513006982	0.5	cue	Exp	Val	CueFace2	Mas	0	1.54947713365164
224.601593004124	3.93645757230524	Jitter1	Exp	Val	CueFace2	Mas	0	1.54947713365164
228.520970579287	0.5	target	Exp	Val	Face	Mas	0	1.54947713365164
229.037871273814	3.91826732198433	Jitter2	Exp	Val	Face	Mas	0	1.54947713365164
232.974136309263	0.5	cue	Exp	Val	CueFace2	Mas	1	1.4483017907778
233.491122101381	3.23591855449058	Jitter1	Exp	Val	CueFace2	Mas	1	1.4483017907778
236.710054863754	0.5	target	Exp	Val	Face	Mas	1	1.4483017907778
237.226958688962	2.51845550434837	Jitter2	Exp	Val	Face	Mas	1	1.4483017907778
239.762171303442	0.5	cue	Exp	Val	CueFace2	Fem	1	1.44276219378753
240.279232516501	6.02134113802504	Jitter1	Exp	Val	CueFace2	Fem	1	1.44276219378753
246.283512441467	0.5	target	Exp	Val	Face	Fem	1	1.44276219378753
246.800326899975	3.21838717012906	Jitter2	Exp	Val	Face	Fem	1	1.44276219378753
250.036110977504	0.5	cue	Exp	Inval	CueFace2	Fem	1	1.19218650431912
250.55319268229	6.03793004522731	Jitter1	Exp	Inval	CueFace2	Fem	1	1.19218650431912
256.574041022731	0.5	target	Exp	Inval	Word	Fem	1	1.19218650431912
257.090919517887	3.21845917578275	Jitter2	Exp	Inval	Word	Fem	1	1.19218650431912
260.326701318557	0.5	cue	Exp	Inval	CueName2	Fem	1	1.2702087566272
260.843727809523	6.02126287101055	Jitter1	Exp	Inval	CueName2	Fem	1	1.2702087566272
266.847964189568	0.5	target	Exp	Inval	Face	Fem	1	1.2702087566272
267.364807393415	4.61846025729074	Jitter2	Exp	Inval	Face	Fem	1	1.2702087566272
272.001570747831	0.5	cue	Exp	Val	CueName2	Fem	1	1.60459760366302
272.518573616388	3.23595356119176	Jitter1	Exp	Val	CueName2	Fem	1	1.60459760366302
275.737524309023	0.5	target	Exp	Val	Word	Fem	1	1.60459760366302
276.25440479643	2.51843928173093	Jitter2	Exp	Val	Word	Fem	1	1.60459760366302
278.789584681067	0.5	cue	Exp	Val	CueName2	Mas	1	1.10098522518001
279.306664393603	2.5355110252608	Jitter1	Exp	Val	CueName2	Mas	1	1.10098522518001
281.825095706328	0.5	target	Exp	Val	Word	Mas	1	1.10098522518001
282.342004369861	3.91844833224377	Jitter2	Exp	Val	Word	Mas	1	1.10098522518001
286.27827367442	0.5	cue	Exp	Inval	CueFace2	Mas	1	1.16332276776075
286.795200552821	3.93644960329993	Jitter1	Exp	Inval	CueFace2	Mas	1	1.16332276776075
290.71472327772	0.5	target	Exp	Inval	Word	Mas	1	1.16332276776075
291.231585834866	4.61849071027473	Jitter2	Exp	Inval	Word	Mas	1	1.16332276776075
295.868400133993	0.5	cue	Exp	Val	CueFace2	Fem	1	1.12617667341283
296.385334696792	2.53541255112623	Jitter1	Exp	Val	CueFace2	Fem	1	1.12617667341283
298.903812685119	0.5	target	Exp	Val	Face	Fem	1	1.12617667341283
299.420673819228	5.31842949123848	Jitter2	Exp	Val	Face	Fem	1	1.12617667341283
304.75792923125	0.5	cue	Exp	Val	CueName2	Mas	1	1.49155755058973
305.274953729964	3.93643992665102	Jitter1	Exp	Val	CueName2	Mas	1	1.49155755058973
309.194369157901	0.5	target	Exp	Val	Word	Mas	1	1.49155755058973
309.711241107088	3.21847824447377	Jitter2	Exp	Val	Word	Mas	1	1.49155755058973
312.946974239906	0.5	cue	Exp	Val	CueName2	Mas	1	0.941381705953518
313.464071882703	5.33747868646878	Jitter1	Exp	Val	CueName2	Mas	1	0.941381705953518
318.784452926375	0.5	target	Exp	Val	Word	Mas	1	0.941381705953518
319.301314345092	4.61846737247379	Jitter2	Exp	Val	Word	Mas	1	0.941381705953518
323.937973248619	0.5	cue	Exp	Val	CueFace2	Mas	1	0.890814668547591
324.455059222516	4.63700683598336	Jitter1	Exp	Val	CueFace2	Mas	1	0.890814668547591
329.074980084602	0.5	target	Exp	Val	Face	Mas	1	0.890814668547591
329.591912370543	4.61838255949078	Jitter2	Exp	Val	Face	Mas	1	0.890814668547591
334.228603719305	0.5	cue	Exp	Val	CueName2	Mas	1	0.856159457515332
334.745641594564	4.63696300645552	Jitter1	Exp	Val	CueName2	Mas	1	0.856159457515332
339.365566725761	0.5	target	Exp	Val	Word	Mas	1	0.856159457515332
339.882446359346	5.31851914254639	Jitter2	Exp	Val	Word	Mas	1	0.856159457515332
345.219624073568	0.5	cue	Exp	Val	CueName2	Mas	1	1.04466058157232
345.736692686417	2.53739199507754	Jitter1	Exp	Val	CueName2	Mas	1	1.04466058157232
348.257016068645	0.5	target	Exp	Val	Word	Mas	1	1.04466058157232
348.772010747911	6.01849036874592	Jitter2	Exp	Val	Word	Mas	1	1.04466058157232
354.809731179842	0.5	cue	Exp	Val	CueName2	Fem	1	0.762030992030304
355.326765070598	6.03790073067239	Jitter1	Exp	Val	CueName2	Fem	1	0.762030992030304
361.347631910515	0.5	target	Exp	Val	Word	Fem	1	0.762030992030304
361.864567896351	5.31837598506127	Jitter2	Exp	Val	Word	Fem	1	0.762030992030304
367.201777201985	0.5	cue	Exp	Val	CueFace2	Fem	1	1.06687873707187
367.718852930018	4.63694336854996	Jitter1	Exp	Val	CueFace2	Fem	1	1.06687873707187
372.338720570535	0.5	target	Exp	Val	Face	Fem	1	1.06687873707187
372.855626387994	2.51839858288349	Jitter2	Exp	Val	Face	Fem	1	1.06687873707187
375.390839287081	0.5	cue	Exp	Val	CueFace2	Mas	1	1.00530963427127
375.907932660768	6.021298162319	Jitter1	Exp	Val	CueFace2	Mas	1	1.00530963427127
381.9121374494	0.5	target	Exp	Val	Face	Mas	1	1.00530963427127
382.429015090734	6.01835461105156	Jitter2	Exp	Val	Face	Mas	1	1.00530963427127
388.466678316593	0.5	cue	Exp	Val	CueName2	Fem	1	0.983247443585697
388.983757744521	2.5355093176172	Jitter1	Exp	Val	CueName2	Fem	1	0.983247443585697
391.50218763421	0.5	target	Exp	Val	Word	Fem	1	0.983247443585697
392.019094874706	4.61844972681956	Jitter2	Exp	Val	Word	Fem	1	0.983247443585697
396.655753209019	0.5	cue	Exp	Val	CueName2	Fem	1	0.837496901337545
397.172811860612	3.23608732663524	Jitter1	Exp	Val	CueName2	Fem	1	0.837496901337545
400.391840535654	0.5	target	Exp	Val	Word	Fem	1	0.837496901337545
400.908715615521	6.01833041942882	Jitter2	Exp	Val	Word	Fem	1	0.837496901337545
406.946315943162	0.5	cue	Exp	Val	CueName2	Fem	1	0.869459442459629
407.46337829465	5.33753760018544	Jitter1	Exp	Val	CueName2	Fem	1	0.869459442459629
412.783853543347	0.5	target	Exp	Val	Word	Fem	1	0.869459442459629
413.300719515781	3.91846540868301	Jitter2	Exp	Val	Word	Fem	1	0.869459442459629
417.236899738246	0.5	cue	Exp	Inval	CueName2	Fem	1	0.987756192841971
417.753977458531	3.9365446621473	Jitter1	Exp	Inval	CueName2	Fem	1	0.987756192841971
421.673444400394	0.5	target	Exp	Inval	Face	Fem	1	0.987756192841971
422.190301265392	2.51841423628639	Jitter2	Exp	Inval	Face	Fem	1	0.987756192841971
424.725551448039	0.5	cue	Exp	Val	CueFace2	Fem	1	1.059195193096
425.242635714292	3.936445903405	Jitter1	Exp	Val	CueFace2	Fem	1	1.059195193096
429.161997351444	0.5	target	Exp	Val	Face	Fem	1	1.059195193096
429.678898330579	6.01825898299012	Jitter2	Exp	Val	Face	Fem	1	1.059195193096
435.716596563139	0.5	cue	Exp	Val	CueFace2	Fem	1	0.941119582606007
436.233634723004	2.53543901960757	Jitter1	Exp	Val	CueFace2	Fem	1	0.941119582606007
438.752035582746	0.5	target	Exp	Val	Face	Fem	1	0.941119582606007
439.268954207535	4.6184204122651	Jitter2	Exp	Val	Face	Fem	1	0.941119582606007
443.905631895146	0.5	cue	Exp	Val	CueFace2	Fem	0	1.7714093726313
444.422744052917	3.23605971972438	Jitter1	Exp	Val	CueFace2	Fem	0	1.7714093726313
447.641691614871	0.5	target	Exp	Val	Face	Fem	0	1.7714093726313
448.158557587304	4.61830543090537	Jitter2	Exp	Val	Face	Fem	0	1.7714093726313
452.795272558475	0.5	cue	Exp	Inval	CueName2	Mas	1	1.02476652949554
453.31236080923	4.63694820687442	Jitter1	Exp	Inval	CueName2	Mas	1	1.02476652949554
457.932220765349	0.5	target	Exp	Inval	Face	Mas	1	1.02476652949554
458.449121744483	3.21841392321812	Jitter2	Exp	Inval	Face	Mas	1	1.02476652949554
461.684891022432	0.5	cue	Exp	Inval	CueFace2	Mas	1	1.01063179126459
462.201925767009	5.33742603411383	Jitter1	Exp	Inval	CueFace2	Mas	1	1.01063179126459
467.522317056545	0.5	target	Exp	Inval	Word	Mas	1	1.01063179126459
468.039196690131	2.51847656529026	Jitter2	Exp	Inval	Word	Mas	1	1.01063179126459
