onset	duration	section	btype	validity	stim	gender	accuracy	reaction_time
10.0686390360788	0.5	cue	Att	Val	CueFace2	Fem	1	0.586177248565946
10.5855992158577	4.63683750364726	Jitter1	Att	Val	CueFace2	Fem	1	0.586177248565946
15.2054765397261	0.5	target	Att	Val	Face	Fem	1	0.586177248565946
15.7223894750823	2.51846602471051	Jitter2	Att	Val	Face	Fem	1	0.586177248565946
18.2575797420468	0.5	cue	Att	Val	CueFace2	Mas	1	1.38902625822448
18.7746253033183	4.63691946988183	Jitter1	Att	Val	CueFace2	Mas	1	1.38902625822448
23.3944992119286	0.5	target	Att	Val	Face	Mas	1	1.38902625822448
23.9114041783432	4.61824255288229	Jitter2	Att	Val	Face	Mas	1	1.38902625822448
28.5481016563463	0.5	cue	Att	Inval	CueFace2	Mas	1	0.882349994677497
29.0650974117452	4.63688104820903	Jitter1	Att	Inval	CueFace2	Mas	1	0.882349994677497
33.6849827045553	0.5	target	Att	Inval	Word	Mas	1	0.882349994677497
34.2018797020319	4.61845287595861	Jitter2	Att	Inval	Word	Mas	1	0.882349994677497
38.8385689264869	0.5	cue	Att	Inval	CueName1	Mas	1	1.01986258133547
39.3555840350273	5.32071651010483	Jitter1	Att	Inval	CueName1	Mas	1	1.01986258133547
44.6592854365917	0.5	target	Att	Inval	Face	Mas	1	1.01986258133547
45.1761812956465	5.31832241304073	Jitter2	Att	Inval	Face	Mas	1	1.01986258133547
50.5133402890788	0.5	cue	Att	Val	CueFace2	Fem	1	0.682333886037668
51.0303351906659	2.53537042191601	Jitter1	Att	Val	CueFace2	Fem	1	0.682333886037668
53.5487107109948	0.5	target	Att	Val	Face	Fem	1	0.682333886037668
54.0657121584954	6.0183712512553	Jitter2	Att	Val	Face	Fem	1	0.682333886037668
60.1033634046944	0.5	cue	Att	Val	CueName1	Mas	1	0.774623026478366
60.6204038430769	4.63689698609232	Jitter1	Att	Val	CueName1	Mas	1	0.774623026478366
65.2402603907867	0.5	target	Att	Val	Word	Mas	1	0.774623026478366
65.7571391735401	3.91834711675256	Jitter2	Att	Val	Word	Mas	1	0.774623026478366
69.6932977235592	0.5	cue	Att	Val	CueName1	Mas	1	1.16149169437267
70.2103415771999	3.23596911694403	Jitter1	Att	Val	CueName1	Mas	1	1.16149169437267
73.4292668405033	0.5	target	Att	Val	Word	Mas	1	1.16149169437267
73.9461843295358	6.01836527455089	Jitter2	Att	Val	Word	Mas	1	1.16149169437267
79.9838002847209	0.5	cue	Att	Val	CueFace2	Mas	1	0.954061341479246
80.5008116933932	5.32074098613157	Jitter1	Att	Val	CueFace2	Mas	1	0.954061341479246
85.8045412708525	0.5	target	Att	Val	Face	Mas	1	0.954061341479246
86.3214260303139	5.31841604807778	Jitter2	Att	Val	Face	Mas	1	0.954061341479246
91.6585417637871	0.5	cue	Att	Val	CueName1	Mas	1	1.14342582425888
92.1756194854242	3.93646876944331	Jitter1	Att	Val	CueName1	Mas	1	1.14342582425888
96.0950105332304	0.5	target	Att	Val	Word	Mas	1	1.14342582425888
96.6118776471812	2.51842475699232	Jitter2	Att	Val	Word	Mas	1	1.14342582425888
99.1470428689099	0.5	cue	Att	Val	CueFace2	Mas	1	0.905991276289569
99.6641262826452	6.02129727501961	Jitter1	Att	Val	CueFace2	Mas	1	0.905991276289569
105.66834014393	0.5	target	Att	Val	Face	Mas	1	0.905991276289569
106.185226041813	2.51841707265339	Jitter2	Att	Val	Face	Mas	1	0.905991276289569
108.720395248009	0.5	cue	Att	Val	CueName1	Mas	1	0.912329144517571
109.237451055058	5.33744985971862	Jitter1	Att	Val	CueName1	Mas	1	0.912329144517571
114.557845107727	0.5	target	Att	Val	Word	Mas	1	0.912329144517571
115.074705106555	5.31832326685253	Jitter2	Att	Val	Word	Mas	1	0.912329144517571
120.411917605721	0.5	cue	Att	Val	CueName1	Mas	1	0.832175560288306
120.928930152815	6.03787836097035	Jitter1	Att	Val	CueName1	Mas	1	0.832175560288306
126.949795966691	0.5	target	Att	Val	Word	Mas	1	0.832175560288306
127.466695525611	4.61833988778744	Jitter2	Att	Val	Word	Mas	1	0.832175560288306
132.10332185237	0.5	cue	Att	Inval	CueFace2	Fem	0	1.09258968329596
132.620403843077	6.03788917596103	Jitter1	Att	Inval	CueFace2	Fem	0	1.09258968329596
138.641211028331	0.5	target	Att	Inval	Word	Fem	0	1.09258968329596
139.158160962328	6.0183803586151	Jitter2	Att	Inval	Word	Fem	0	1.09258968329596
145.195801678146	0.5	cue	Att	Inval	CueName1	Fem	1	0.896915508179518
145.712892207004	4.63689584767053	Jitter1	Att	Inval	CueName1	Fem	1	0.896915508179518
150.332697525817	0.5	target	Att	Inval	Face	Fem	1	0.896915508179518
150.849603061441	5.31841946333589	Jitter2	Att	Inval	Face	Fem	1	0.896915508179518
156.186767462365	0.5	cue	Att	Val	CueName1	Fem	1	1.00735220036586
156.70379025524	2.5354401501354	Jitter1	Att	Val	CueName1	Fem	1	1.00735220036586
159.2222076125	0.5	target	Att	Val	Word	Fem	1	1.00735220036586
159.739102617739	3.21824164214922	Jitter2	Att	Val	Word	Fem	1	1.00735220036586
162.974811321132	0.5	cue	Att	Inval	CueFace2	Mas	1	0.977188911107078
163.49184122913	5.33738923885903	Jitter1	Att	Inval	CueFace2	Mas	1	0.977188911107078
168.812200559991	0.5	target	Att	Inval	Word	Mas	1	0.977188911107078
169.329102680353	3.91839777644054	Jitter2	Att	Inval	Word	Mas	1	0.977188911107078
173.265298798229	0.5	cue	Att	Inval	CueName1	Mas	1	0.794752282672562
173.782336105956	6.02121559339139	Jitter1	Att	Inval	CueName1	Mas	1	0.794752282672562
179.786514391621	0.5	target	Att	Inval	Face	Mas	1	0.794752282672562
180.303392889771	6.01840455003548	Jitter2	Att	Inval	Face	Mas	1	0.794752282672562
186.340991484052	0.5	cue	Att	Val	CueName1	Fem	1	0.887109159102693
186.858084574353	4.63696870654167	Jitter1	Att	Val	CueName1	Fem	1	0.887109159102693
191.477960190594	0.5	target	Att	Val	Word	Fem	1	0.887109159102693
191.994847226895	2.51831689170285	Jitter2	Att	Val	Word	Fem	1	0.887109159102693
194.530041193724	0.5	cue	Att	Inval	CueName1	Mas	1	1.17448960366528
195.04710639274	3.93642408645974	Jitter1	Att	Inval	CueName1	Mas	1	1.17448960366528
198.966465280184	0.5	target	Att	Inval	Face	Mas	1	1.17448960366528
199.483413221951	3.2183754064863	Jitter2	Att	Inval	Face	Mas	1	1.17448960366528
202.719117656266	0.5	cue	Att	Val	CueName1	Fem	1	0.864417035085353
203.236131341782	5.33728592725311	Jitter1	Att	Val	CueName1	Fem	1	0.864417035085353
208.55640358352	0.5	target	Att	Val	Word	Fem	1	0.864417035085353
209.073418407454	5.31827346098362	Jitter2	Att	Val	Word	Fem	1	0.864417035085353
214.410496288467	0.5	cue	Att	Val	CueName1	Fem	1	0.98429948185003
214.927545549603	6.03786953821691	Jitter1	Att	Val	CueName1	Fem	1	0.98429948185003
220.948365826684	0.5	target	Att	Val	Word	Fem	1	0.98429948185003
221.465325437253	6.01840426543276	Jitter2	Att	Val	Word	Fem	1	0.98429948185003
227.502985790812	0.5	cue	Att	Inval	CueFace2	Mas	1	1.50162765585992
228.020010860528	3.23588572768858	Jitter1	Att	Inval	CueFace2	Mas	1	1.50162765585992
231.238871518501	0.5	target	Att	Inval	Word	Mas	1	1.50162765585992
231.755809214486	3.21839504423042	Jitter2	Att	Inval	Word	Mas	1	1.50162765585992
234.991461281486	0.5	cue	Att	Inval	CueName1	Fem	1	1.06545572941104
235.508533880231	2.5354683260266	Jitter1	Att	Inval	CueName1	Fem	1	1.06545572941104
238.026929607513	0.5	target	Att	Inval	Face	Fem	1	1.06545572941104
238.543858196139	4.61843096137818	Jitter2	Att	Inval	Face	Fem	1	1.06545572941104
243.180486515132	0.5	cue	Att	Val	CueFace2	Mas	1	0.967775601497124
243.697551714147	3.23598818547907	Jitter1	Att	Val	CueFace2	Mas	1	0.967775601497124
246.916474700611	0.5	target	Att	Val	Face	Mas	1	0.967775601497124
247.433377674788	6.01834022931143	Jitter2	Att	Val	Face	Mas	1	0.967775601497124
253.470993629973	0.5	cue	Att	Val	CueName1	Fem	1	1.0007080971809
253.988023537971	3.93639192609771	Jitter1	Att	Val	CueName1	Fem	1	1.0007080971809
257.907385556071	0.5	target	Att	Val	Word	Fem	1	1.0007080971809
258.424346305059	4.61839396273353	Jitter2	Att	Val	Word	Fem	1	1.0007080971809
263.061019876244	0.5	cue	Att	Val	CueName1	Fem	1	0.711064473842271
263.578025877425	3.23593382592662	Jitter1	Att	Val	CueName1	Fem	1	0.711064473842271
266.796953702171	0.5	target	Att	Val	Word	Fem	1	0.711064473842271
267.313865499105	3.91838212316361	Jitter2	Att	Val	Word	Fem	1	0.711064473842271
271.25014529084	0.5	cue	Att	Inval	CueFace2	Fem	1	1.15049171201827
271.767068471974	2.53529614001673	Jitter1	Att	Inval	CueFace2	Fem	1	1.15049171201827
274.285441430857	0.5	target	Att	Inval	Word	Fem	1	1.15049171201827
274.802387380387	3.91843676732242	Jitter2	Att	Inval	Word	Fem	1	1.15049171201827
278.738524869637	0.5	cue	Att	Inval	CueFace2	Mas	1	1.11673670795426
279.255608567975	3.93648698415927	Jitter1	Att	Inval	CueFace2	Mas	1	1.11673670795426
283.175011853797	0.5	target	Att	Inval	Word	Mas	1	1.11673670795426
283.691886082874	5.31844109331723	Jitter2	Att	Inval	Word	Mas	1	1.11673670795426
289.02907382141	0.5	cue	Att	Inval	CueFace2	Fem	1	1.4387134488934
289.546113405977	3.23584161391409	Jitter1	Att	Inval	CueFace2	Fem	1	1.4387134488934
292.764915435324	0.5	target	Att	Inval	Word	Fem	1	1.4387134488934
293.28189553745	4.61839937022887	Jitter2	Att	Inval	Word	Fem	1	1.4387134488934
297.918581062044	0.5	cue	Att	Inval	CueFace2	Fem	1	0.999524994294916
298.43551875803	5.3374054613414	Jitter1	Att	Inval	CueFace2	Fem	1	0.999524994294916
303.755986523385	0.5	target	Att	Inval	Word	Fem	1	0.999524994294916
304.272865875351	3.21841724341721	Jitter2	Att	Inval	Word	Fem	1	0.999524994294916
307.508519080773	0.5	cue	Att	Val	CueFace2	Fem	1	0.677592651725718
308.025698121779	6.02126966833748	Jitter1	Att	Val	CueFace2	Fem	1	0.677592651725718
314.029788749111	0.5	target	Att	Val	Face	Fem	1	0.677592651725718
314.546675216199	4.61826133681461	Jitter2	Att	Val	Face	Fem	1	0.677592651725718
319.183350779618	0.5	cue	Att	Val	CueFace2	Fem	1	1.47588456649828
319.700373857097	3.23593866421288	Jitter1	Att	Val	CueFace2	Fem	1	1.47588456649828
322.919289443831	0.5	target	Att	Val	Face	Fem	1	1.47588456649828
323.436177333948	5.31840011019813	Jitter2	Att	Val	Face	Fem	1	1.47588456649828
328.773323804759	0.5	cue	Att	Inval	CueName1	Mas	1	1.3977656232455
329.290390711405	3.23595460209253	Jitter1	Att	Inval	CueName1	Mas	1	1.3977656232455
332.509278406851	0.5	target	Att	Inval	Face	Mas	1	1.3977656232455
333.026181665635	2.51840597306	Jitter2	Att	Inval	Face	Mas	1	1.3977656232455
335.561392993368	0.5	cue	Att	Inval	CueName1	Fem	1	0.957117429719801
336.078417778477	3.93642294804158	Jitter1	Att	Inval	CueName1	Fem	1	0.957117429719801
339.99781594141	0.5	target	Att	Inval	Face	Fem	1	0.957117429719801
340.514721477033	6.01844354091736	Jitter2	Att	Inval	Face	Fem	1	0.957117429719801
346.552419683052	0.5	cue	Att	Inval	CueFace2	Fem	1	0.733957528969768
347.069424261208	3.93638452636878	Jitter1	Att	Inval	CueFace2	Fem	1	0.733957528969768
350.988804209421	0.5	target	Att	Inval	Word	Fem	1	0.733957528969768
351.505687830464	5.31839242586284	Jitter2	Att	Inval	Word	Fem	1	0.733957528969768
356.842853939019	0.5	cue	Att	Inval	CueName1	Fem	1	1.69908801181373
357.359882139386	5.32072618667371	Jitter1	Att	Inval	CueName1	Fem	1	1.69908801181373
362.663580125693	0.5	target	Att	Inval	Face	Fem	1	1.69908801181373
363.180468300412	3.21822968874039	Jitter2	Att	Inval	Face	Fem	1	1.69908801181373
366.416116952154	0.5	cue	Att	Val	CueName1	Mas	1	0.950885149937676
366.933167067105	2.5355204087391	Jitter1	Att	Val	CueName1	Mas	1	0.950885149937676
369.451637360893	0.5	target	Att	Val	Word	Mas	1	0.950885149937676
369.968517851277	3.21842720459244	Jitter2	Att	Val	Word	Mas	1	0.950885149937676
373.20417276433	0.5	cue	Att	Val	CueFace2	Fem	1	1.10542935222111
373.721259024114	5.32077713096442	Jitter1	Att	Val	CueFace2	Fem	1	1.10542935222111
379.024949895294	0.5	target	Att	Val	Face	Fem	1	1.10542935222111
379.541831808707	3.21838735989513	Jitter2	Att	Val	Face	Fem	1	1.10542935222111
382.777452284554	0.5	cue	Att	Inval	CueFace2	Mas	1	0.790858886590286
383.29456387418	6.03792645921203	Jitter1	Att	Inval	CueFace2	Mas	1	0.790858886590286
389.315378743766	0.5	target	Att	Inval	Word	Mas	1	0.790858886590286
389.832311886072	6.01840170398646	Jitter2	Att	Inval	Word	Mas	1	0.790858886590286
395.870008384463	0.5	cue	Att	Val	CueFace2	Mas	1	0.752755118475761
396.386997593949	2.53533086182506	Jitter1	Att	Val	CueFace2	Mas	1	0.752755118475761
398.905339246288	0.5	target	Att	Val	Face	Mas	1	0.752755118475761
399.422316217759	3.21839191357503	Jitter2	Att	Val	Face	Mas	1	0.752755118475761
402.657960031214	0.5	cue	Att	Inval	CueName1	Mas	1	1.12454911456371
403.175007869329	2.53546519537485	Jitter1	Att	Inval	CueName1	Mas	1	1.12454911456371
405.693425226589	0.5	target	Att	Inval	Face	Mas	1	1.12454911456371
406.210357799686	4.61839367812718	Jitter2	Att	Inval	Face	Mas	1	1.12454911456371
410.846990387752	0.5	cue	Att	Inval	CueName1	Fem	1	1.48947730019427
411.364025418639	6.0213513499657	Jitter1	Att	Inval	CueName1	Fem	1	1.48947730019427
417.368341737718	0.5	target	Att	Inval	Face	Fem	1	1.48947730019427
417.885137985031	2.51820390352805	Jitter2	Att	Inval	Face	Fem	1	1.48947730019427
420.420431848208	0.5	cue	Att	Val	CueFace2	Fem	1	0.920942714139528
420.937410242706	3.93633984338885	Jitter1	Att	Val	CueFace2	Fem	1	0.920942714139528
424.856771691597	0.5	target	Att	Val	Face	Fem	1	0.920942714139528
425.373674665774	3.91842054483641	Jitter2	Att	Val	Face	Fem	1	0.920942714139528
429.309896113493	0.5	cue	Att	Val	CueFace2	Mas	1	1.06340088148136
429.82692203702	3.93639904122028	Jitter1	Att	Val	CueFace2	Mas	1	1.06340088148136
433.746295154713	0.5	target	Att	Val	Face	Mas	1	1.06340088148136
434.263190159953	3.91840859142758	Jitter2	Att	Val	Face	Mas	1	1.06340088148136
438.19938570862	0.5	cue	Att	Inval	CueName1	Mas	1	1.70578220547031
438.716359834041	4.62023535693152	Jitter1	Att	Inval	CueName1	Mas	1	1.70578220547031
443.319621065551	0.5	target	Att	Inval	Face	Mas	1	1.70578220547031
443.836502409751	3.91828279602851	Jitter2	Att	Inval	Face	Mas	1	1.70578220547031
447.77264103742	0.5	cue	Att	Inval	CueName1	Fem	1	1.61268194084914
448.289721605106	3.23598334719281	Jitter1	Att	Inval	CueName1	Fem	1	1.61268194084914
451.508624384613	0.5	target	Att	Inval	Face	Fem	1	1.61268194084914
452.025526789581	3.91823014410693	Jitter2	Att	Inval	Face	Fem	1	1.61268194084914
455.961719776802	0.5	cue	Att	Inval	CueFace2	Fem	1	1.44648202634198
456.478769891753	4.63697212180341	Jitter1	Att	Inval	CueFace2	Fem	1	1.44648202634198
461.098691898605	0.5	target	Att	Inval	Word	Fem	1	1.44648202634198
461.615526567592	2.51839629649112	Jitter2	Att	Inval	Word	Fem	1	1.44648202634198
464.150740741374	0.5	cue	Att	Inval	CueFace2	Mas	1	0.990936469905137
464.667713159168	2.53541339726871	Jitter1	Att	Inval	CueFace2	Mas	1	0.990936469905137
467.186154138642	0.5	target	Att	Inval	Word	Mas	1	0.990936469905137
467.703093542255	2.5	Jitter2	Att	Inval	Word	Mas	1	0.990936469905137
