onset	duration	section	btype	validity	stim	gender	accuracy	reaction_time
10.0558951711528	0.5	cue	Exp	Val	CueFace1	Mas	1	0.671950211933108
10.572971183793	3.23595526883582	Jitter1	Exp	Val	CueFace1	Mas	1	0.671950211933108
13.7918504399886	0.5	target	Exp	Val	Face	Mas	1	0.671950211933108
14.3087138509563	3.91855107548872	Jitter2	Exp	Val	Face	Mas	1	0.671950211933108
18.2449743326888	0.5	cue	Exp	Val	CueName1	Mas	1	0.592817421839754
18.7620039543344	6.03792036857703	Jitter1	Exp	Val	CueName1	Mas	1	0.592817421839754
24.7828947012658	0.5	target	Exp	Val	Word	Mas	1	0.592817421839754
25.2997555507682	5.31839419993048	Jitter2	Exp	Val	Word	Mas	1	0.592817421839754
30.6369694101204	0.5	cue	Exp	Val	CueName1	Fem	1	0.631126990935627
31.1540255002474	2.53552440180465	Jitter1	Exp	Val	CueName1	Fem	1	0.631126990935627
33.6724938119251	0.5	target	Exp	Val	Word	Fem	1	0.631126990935627
34.1893890989131	3.91842186376289	Jitter2	Exp	Val	Word	Fem	1	0.631126990935627
38.1255676137353	0.5	cue	Exp	Val	CueName1	Mas	1	0.549577315429815
38.6425810127639	3.93646639513281	Jitter1	Exp	Val	CueName1	Mas	1	0.549577315429815
42.5620340088681	0.5	target	Exp	Val	Word	Mas	1	0.549577315429815
43.0789170577409	4.61843948095611	Jitter2	Exp	Val	Word	Mas	1	0.549577315429815
47.7156525206392	0.5	cue	Exp	Val	CueName1	Mas	1	0.619946476746009
48.232681288463	3.23591428538111	Jitter1	Exp	Val	CueName1	Mas	1	0.619946476746009
51.4515668060203	0.5	target	Exp	Val	Word	Mas	1	0.619946476746009
51.9684652236883	6.01840811722923	Jitter2	Exp	Val	Word	Mas	1	0.619946476746009
57.9895287272675	0.5	cue	Exp	Val	CueName1	Fem	1	0.516959039028734
58.5065648948821	5.33741977275258	Jitter1	Exp	Val	CueName1	Fem	1	0.516959039028734
63.8269485000201	0.5	target	Exp	Val	Word	Fem	1	0.516959039028734
64.3438591558033	3.21832512573292	Jitter2	Exp	Val	Word	Fem	1	0.516959039028734
67.5795840350092	0.5	cue	Exp	Val	CueFace1	Fem	1	0.611464324613735
68.0965570197968	4.62033852333752	Jitter1	Exp	Val	CueFace1	Fem	1	0.611464324613735
72.6999225583468	0.5	target	Exp	Val	Face	Fem	1	0.611464324613735
73.2167262017756	3.21832939484284	Jitter2	Exp	Val	Face	Fem	1	0.611464324613735
76.4524724265311	0.5	cue	Exp	Inval	CueFace1	Mas	1	0.56284627817513
76.9695009097477	3.23602129773553	Jitter1	Exp	Inval	CueFace1	Mas	1	0.56284627817513
80.1884937242667	0.5	target	Exp	Inval	Word	Mas	1	0.56284627817513
80.7053170056006	2.51840484424429	Jitter2	Exp	Inval	Word	Mas	1	0.56284627817513
83.2405825570431	0.5	cue	Exp	Val	CueFace1	Fem	1	0.562244618288787
83.7575865640301	3.9364191503164	Jitter1	Exp	Val	CueFace1	Fem	1	0.562244618288787
87.6770017073595	0.5	target	Exp	Val	Face	Fem	1	0.562244618288787
88.1939018326721	3.91837234208742	Jitter2	Exp	Val	Face	Fem	1	0.562244618288787
92.1301042545092	0.5	cue	Exp	Val	CueName1	Fem	1	0.607675347285294
92.6471868131184	5.33749405526487	Jitter1	Exp	Val	CueName1	Fem	1	0.607675347285294
97.9675983097741	0.5	target	Exp	Val	Word	Fem	1	0.607675347285294
98.4844326907942	3.91832282041378	Jitter2	Exp	Val	Word	Fem	1	0.607675347285294
102.42074070195	0.5	cue	Exp	Val	CueFace1	Fem	1	0.457187800705469
102.93774755501	6.02123184881202	Jitter1	Exp	Val	CueFace1	Fem	1	0.457187800705469
108.941972550762	0.5	target	Exp	Val	Face	Fem	1	0.457187800705469
109.458962896597	5.31824933480129	Jitter2	Exp	Val	Face	Fem	1	0.457187800705469
114.796045551971	0.5	cue	Exp	Val	CueName1	Mas	0	0.477671843768803
115.313084281052	5.33743542615593	Jitter1	Exp	Val	CueName1	Mas	0	0.477671843768803
120.633480978127	0.5	target	Exp	Val	Word	Mas	0	0.477671843768803
121.150354919566	3.2183797703392	Jitter2	Exp	Val	Word	Mas	0	0.477671843768803
124.386123628299	0.5	cue	Exp	Val	CueName1	Fem	1	0.548049258697574
124.903159226699	4.63691946153449	Jitter1	Exp	Val	CueName1	Fem	1	0.548049258697574
129.523043089834	0.5	target	Exp	Val	Word	Fem	1	0.548049258697574
130.039913615985	5.31841070715473	Jitter2	Exp	Val	Word	Fem	1	0.548049258697574
135.377149959316	0.5	cue	Exp	Val	CueFace1	Mas	1	0.593067307070669
135.89411582892	5.32076796733145	Jitter1	Exp	Val	CueFace1	Mas	1	0.593067307070669
141.197917926647	0.5	target	Exp	Val	Face	Mas	1	0.593067307070669
141.714780199185	3.21836440154402	Jitter2	Exp	Val	Face	Mas	1	0.593067307070669
144.950532116087	0.5	cue	Exp	Val	CueFace1	Fem	1	0.613003481032138
145.467644843072	2.53540742819405	Jitter1	Exp	Val	CueFace1	Fem	1	0.613003481032138
147.985939544281	0.5	target	Exp	Val	Face	Fem	1	0.613003481032138
148.502880653049	3.91839254920797	Jitter2	Exp	Val	Face	Fem	1	0.613003481032138
152.439128327451	0.5	cue	Exp	Val	CueFace1	Mas	1	0.550501720023931
152.95614485716	6.02125518661342	Jitter1	Exp	Val	CueFace1	Mas	1	0.550501720023931
158.960383514064	0.5	target	Exp	Val	Face	Mas	1	0.550501720023931
159.477223018016	2.51836699147043	Jitter2	Exp	Val	Face	Mas	1	0.550501720023931
162.012500807574	0.5	cue	Exp	Val	CueName1	Mas	0	0.58289714888906
162.529532136863	2.53546150358579	Jitter1	Exp	Val	CueName1	Mas	0	0.58289714888906
165.04796231116	0.5	target	Exp	Val	Word	Mas	0	0.58289714888906
165.564888904953	4.61846594943745	Jitter2	Exp	Val	Word	Mas	0	0.58289714888906
170.201583953612	0.5	cue	Exp	Val	CueName1	Fem	1	0.749214839539491
170.718631505519	3.23596836077286	Jitter1	Exp	Val	CueName1	Fem	1	0.749214839539491
173.937552314384	0.5	target	Exp	Val	Word	Fem	1	0.749214839539491
174.454419140639	3.21842018457937	Jitter2	Exp	Val	Word	Fem	1	0.749214839539491
177.690167357646	0.5	cue	Exp	Val	CueFace1	Mas	1	0.792715646259239
178.207193848612	3.91986553442257	Jitter1	Exp	Val	CueFace1	Mas	1	0.792715646259239
182.110032892068	0.5	target	Exp	Val	Face	Mas	1	0.792715646259239
182.626867842304	5.31847132851544	Jitter2	Exp	Val	Face	Mas	1	0.792715646259239
187.964047833384	0.5	cue	Exp	Inval	CueFace1	Mas	1	1.81664713785995
188.481179344452	6.03791410721715	Jitter1	Exp	Inval	CueFace1	Mas	1	1.81664713785995
194.501961940601	0.5	target	Exp	Inval	Word	Mas	1	1.81664713785995
195.018844704867	5.31832987867438	Jitter2	Exp	Inval	Word	Mas	1	1.81664713785995
200.356067102439	0.5	cue	Exp	Val	CueName1	Fem	1	0.610571511432681
200.873037810368	3.23595128433317	Jitter1	Exp	Val	CueName1	Fem	1	0.610571511432681
204.092018386772	0.5	target	Exp	Val	Word	Fem	1	0.610571511432681
204.608958641717	5.31831024076928	Jitter2	Exp	Val	Word	Fem	1	0.610571511432681
209.946131233008	0.5	cue	Exp	Inval	CueName1	Mas	1	0.551611973202853
210.463167400621	5.3207469063891	Jitter1	Exp	Inval	CueName1	Mas	1	0.551611973202853
215.766878139397	0.5	target	Exp	Inval	Face	Mas	1	0.551611973202853
216.283762611307	3.21828755756451	Jitter2	Exp	Inval	Face	Mas	1	0.551611973202853
219.519512535957	0.5	cue	Exp	Val	CueFace1	Fem	1	0.787160965081057
220.036542726817	3.91980491306185	Jitter1	Exp	Val	CueFace1	Fem	1	0.787160965081057
223.939317449019	0.5	target	Exp	Val	Face	Fem	1	0.787160965081057
224.456141868783	4.61827896242448	Jitter2	Exp	Val	Face	Fem	1	0.787160965081057
229.092958444769	0.5	cue	Exp	Inval	CueName1	Fem	1	0.550030979507028
229.60991833762	2.53540657437225	Jitter1	Exp	Inval	CueName1	Fem	1	0.550030979507028
232.128365019142	0.5	target	Exp	Inval	Face	Fem	1	0.550030979507028
232.64524322969	2.51837296822396	Jitter2	Exp	Inval	Face	Fem	1	0.550030979507028
235.180518457782	0.5	cue	Exp	Val	CueName1	Mas	1	0.696937881320082
235.697548364034	4.63691291556552	Jitter1	Exp	Val	CueName1	Mas	1	0.696937881320082
240.317431373347	0.5	target	Exp	Val	Word	Mas	1	0.696937881320082
240.834320968189	2.51849876466167	Jitter2	Exp	Val	Word	Mas	1	0.696937881320082
243.369577127589	0.5	cue	Exp	Inval	CueName1	Mas	1	0.628776988244681
243.886608741486	3.235955553444	Jitter1	Exp	Inval	CueName1	Mas	1	0.628776988244681
247.105532681033	0.5	target	Exp	Inval	Face	Mas	1	0.628776988244681
247.622417722157	6.01837681042252	Jitter2	Exp	Inval	Face	Mas	1	0.628776988244681
253.643472402909	0.5	cue	Exp	Val	CueName1	Fem	1	0.649893428787436
254.160517677958	4.6369220229999	Jitter1	Exp	Val	CueName1	Fem	1	0.649893428787436
258.780394425909	0.5	target	Exp	Val	Word	Fem	1	0.649893428787436
259.297270928813	6.01838990235956	Jitter2	Exp	Val	Word	Fem	1	0.649893428787436
265.31841127637	0.5	cue	Exp	Val	CueName1	Mas	1	0.59544292442024
265.83533616252	3.93634686005498	Jitter1	Exp	Val	CueName1	Mas	1	0.59544292442024
269.754758136425	0.5	target	Exp	Val	Word	Mas	1	0.59544292442024
270.271636916189	6.01840100204481	Jitter2	Exp	Val	Word	Mas	1	0.59544292442024
276.309353363617	0.5	cue	Exp	Inval	CueFace1	Fem	1	0.551790706603242
276.826435068404	4.63693966865412	Jitter1	Exp	Inval	CueFace1	Fem	1	0.551790706603242
281.446293032272	0.5	target	Exp	Inval	Word	Fem	1	0.551790706603242
281.96317238125	3.91838828009804	Jitter2	Exp	Inval	Word	Fem	1	0.551790706603242
285.899351465287	0.5	cue	Exp	Val	CueFace1	Fem	1	0.706693935843759
286.416445408188	3.23603581270891	Jitter1	Exp	Val	CueFace1	Fem	1	0.706693935843759
289.635387277996	0.5	target	Exp	Val	Face	Fem	1	0.706693935843759
290.152250404356	6.01850943743648	Jitter2	Exp	Val	Face	Fem	1	0.706693935843759
296.189964859534	0.5	cue	Exp	Val	CueName1	Fem	1	0.603564194463615
296.707005580865	3.93647948706894	Jitter1	Exp	Val	CueName1	Fem	1	0.603564194463615
300.626444346603	0.5	target	Exp	Val	Word	Fem	1	0.603564194463615
301.143297511707	2.5183815064438	Jitter2	Exp	Val	Word	Fem	1	0.603564194463615
303.678551678856	0.5	cue	Exp	Val	CueFace1	Mas	1	0.623119563822002
304.195594107831	4.62027989422859	Jitter1	Exp	Val	CueFace1	Mas	1	0.623119563822002
308.798831573085	0.5	target	Exp	Val	Face	Mas	1	0.623119563822002
309.31569413023	5.31842835280895	Jitter2	Exp	Val	Face	Mas	1	0.623119563822002
314.652917666232	0.5	cue	Exp	Val	CueFace1	Mas	1	0.588201944835419
315.169945295626	5.32076625968784	Jitter1	Exp	Val	CueFace1	Mas	1	0.588201944835419
320.473683925919	0.5	target	Exp	Val	Face	Mas	1	0.588201944835419
320.990553882855	2.51843472801374	Jitter2	Exp	Val	Face	Mas	1	0.588201944835419
323.52583081859	0.5	cue	Exp	Inval	CueFace1	Fem	1	0.938712089237015
324.042879508927	5.33731475264904	Jitter1	Exp	Inval	CueFace1	Fem	1	0.938712089237015
329.363145571239	0.5	target	Exp	Inval	Word	Fem	1	0.938712089237015
329.880101479588	6.01840584037018	Jitter2	Exp	Inval	Word	Fem	1	0.938712089237015
335.901178644319	0.5	cue	Exp	Val	CueFace1	Mas	1	0.516949362379819
336.418151913714	4.62026054092985	Jitter1	Exp	Val	CueFace1	Mas	1	0.516949362379819
341.021439185249	0.5	target	Exp	Val	Face	Mas	1	0.516949362379819
341.538333333808	6.01837367974258	Jitter2	Exp	Val	Face	Mas	1	0.516949362379819
347.559355284717	0.5	cue	Exp	Val	CueFace1	Fem	0	0.801561241946729
348.076362137776	5.32075089089267	Jitter1	Exp	Val	CueFace1	Fem	0	0.801561241946729
353.380106175609	0.5	target	Exp	Val	Face	Fem	0	0.801561241946729
353.896971578828	6.01839104078863	Jitter2	Exp	Val	Face	Fem	0	0.801561241946729
359.934631958614	0.5	cue	Exp	Val	CueFace1	Mas	1	0.659507179647335
360.451685487275	2.53548427217174	Jitter1	Exp	Val	CueFace1	Mas	1	0.659507179647335
362.970116230786	0.5	target	Exp	Val	Face	Mas	1	0.659507179647335
363.487061608664	3.21836980908211	Jitter2	Exp	Val	Face	Mas	1	0.659507179647335
366.722802141272	0.5	cue	Exp	Val	CueName1	Mas	1	0.776829719152374
367.239818386373	6.03792748376054	Jitter1	Exp	Val	CueName1	Mas	1	0.776829719152374
373.260729625033	0.5	target	Exp	Val	Word	Mas	1	0.776829719152374
373.777585066995	2.51838207565834	Jitter2	Exp	Val	Word	Mas	1	0.776829719152374
376.312844072469	0.5	cue	Exp	Inval	CueName1	Fem	1	0.675340454398793
376.829869425005	6.02133316901927	Jitter1	Exp	Inval	CueName1	Fem	1	0.675340454398793
382.834177241489	0.5	target	Exp	Inval	Face	Fem	1	0.675340454398793
383.350968077589	4.61843321959441	Jitter2	Exp	Inval	Face	Fem	1	0.675340454398793
387.987692440801	0.5	cue	Exp	Val	CueFace1	Fem	1	0.742299450736027
388.504750807787	2.53547089562835	Jitter1	Exp	Val	CueFace1	Fem	1	0.742299450736027
391.023163336429	0.5	target	Exp	Val	Face	Fem	1	0.742299450736027
391.540074846034	4.61835381415131	Jitter2	Exp	Val	Face	Fem	1	0.742299450736027
396.176753672075	0.5	cue	Exp	Inval	CueName1	Fem	1	0.792800743849511
396.693804070055	3.91980975138631	Jitter1	Exp	Inval	CueName1	Fem	1	0.792800743849511
400.596563423462	0.5	target	Exp	Inval	Face	Fem	1	0.792800743849511
401.11342996511	3.91827614481099	Jitter2	Exp	Inval	Face	Fem	1	0.792800743849511
405.049672801188	0.5	cue	Exp	Val	CueName1	Mas	1	0.632216183171295
405.566705268907	2.53543674274897	Jitter1	Exp	Val	CueName1	Mas	1	0.632216183171295
408.085109543937	0.5	target	Exp	Val	Word	Mas	1	0.632216183171295
408.60201706904	3.91840962564766	Jitter2	Exp	Val	Word	Mas	1	0.632216183171295
412.53826075894	0.5	cue	Exp	Val	CueName1	Fem	1	0.657084886695884
413.05528668069	6.0379126841799	Jitter1	Exp	Val	CueName1	Fem	1	0.657084886695884
419.07617344312	0.5	target	Exp	Val	Word	Fem	1	0.657084886695884
419.593059907281	4.61826501666474	Jitter2	Exp	Val	Word	Fem	1	0.657084886695884
424.229815292691	0.5	cue	Exp	Inval	CueFace1	Fem	1	0.516863126360477
424.746822714967	3.93651876288004	Jitter1	Exp	Inval	CueFace1	Fem	1	0.516863126360477
428.666334055572	0.5	target	Exp	Inval	Word	Fem	1	0.516863126360477
429.18313029921	3.218380624161	Jitter2	Exp	Inval	Word	Fem	1	0.516863126360477
432.418882785327	0.5	cue	Exp	Val	CueFace1	Mas	1	0.617039212912459
432.935923222051	6.02124977907351	Jitter1	Exp	Val	CueFace1	Mas	1	0.617039212912459
438.9401325644	0.5	target	Exp	Val	Face	Mas	1	0.617039212912459
439.457013051808	4.61824395572239	Jitter2	Exp	Val	Face	Mas	1	0.617039212912459
444.093729446015	0.5	cue	Exp	Inval	CueFace1	Mas	1	0.587882900023033
444.610769028917	2.53545865751312	Jitter1	Exp	Inval	CueFace1	Mas	1	0.587882900023033
447.129188103528	0.5	target	Exp	Inval	Word	Mas	1	0.587882900023033
447.646071152401	4.61828010085355	Jitter2	Exp	Inval	Word	Mas	1	0.587882900023033
452.282810315194	0.5	cue	Exp	Val	CueFace1	Fem	1	0.516920047824897
452.799852174955	3.23594616140144	Jitter1	Exp	Val	CueFace1	Fem	1	0.516920047824897
456.018756476596	0.5	target	Exp	Val	Face	Fem	1	0.516920047824897
456.535623302851	2.51851157199235	Jitter2	Exp	Val	Face	Fem	1	0.516920047824897
459.070899669372	0.5	cue	Exp	Inval	CueName1	Mas	1	0.661846651864835
459.587968566829	4.62027078679421	Jitter1	Exp	Inval	CueName1	Mas	1	0.661846651864835
464.191170456166	0.5	target	Exp	Inval	Face	Mas	1	0.661846651864835
464.708088227133	5.31837200055907	Jitter2	Exp	Inval	Face	Mas	1	0.661846651864835
