onset	duration	section	btype	validity	stim	gender	accuracy	reaction_time
10.0534925161082	0.5	cue	Att	Val	CueName2	Fem	1	1.0102766013224
10.5705192916803	3.2359581149085	Jitter1	Att	Val	CueName2	Fem	1	1.0102766013224
13.7894506310167	0.5	target	Att	Val	Word	Fem	1	1.0102766013224
14.306326564707	6.0184109633019	Jitter2	Att	Val	Word	Fem	1	1.0102766013224
20.3274447128924	0.5	cue	Att	Inval	CueFace2	Fem	1	0.978869044484782
20.8444085902456	5.33735032856475	Jitter1	Att	Inval	CueFace2	Fem	1	0.978869044484782
26.1647950414572	0.5	target	Att	Inval	Word	Fem	1	0.978869044484782
26.6816712597547	5.31840643804571	Jitter2	Att	Inval	Word	Fem	1	0.978869044484782
32.0189249641326	0.5	cue	Att	Inval	CueName2	Fem	1	0.91676032619398
32.5358896953076	3.23592339281549	Jitter1	Att	Inval	CueName2	Fem	1	0.91676032619398
35.7548483569481	0.5	target	Att	Inval	Face	Fem	1	0.91676032619398
36.2717342518936	5.31839476914593	Jitter2	Att	Inval	Face	Fem	1	0.91676032619398
41.6089577878956	0.5	cue	Att	Inval	CueName2	Fem	1	0.779154107181967
42.1260679534143	2.53545979594219	Jitter1	Att	Inval	CueName2	Fem	1	0.779154107181967
44.6444175838378	0.5	target	Att	Inval	Face	Fem	1	0.779154107181967
45.1612883945954	6.01840384811931	Jitter2	Att	Inval	Face	Fem	1	0.779154107181967
51.1823598671799	0.5	cue	Att	Val	CueName2	Fem	1	1.28566350363599
51.6993644433805	2.53544585018244	Jitter1	Att	Val	CueName2	Fem	1	1.28566350363599
54.2178057173624	0.5	target	Att	Val	Word	Fem	1	1.28566350363599
54.7346662822574	3.91840535653682	Jitter2	Att	Val	Word	Fem	1	1.28566350363599
58.6709444096432	0.5	cue	Att	Inval	CueFace2	Fem	1	0.933029903976603
59.1879768773624	2.53546748034023	Jitter1	Att	Inval	CueFace2	Fem	1	0.933029903976603
61.7064118899834	0.5	target	Att	Inval	Word	Fem	1	0.933029903976603
62.2232693241967	6.01842149377353	Jitter2	Att	Inval	Word	Fem	1	0.933029903976603
68.2443296970951	0.5	cue	Att	Val	CueFace2	Mas	1	0.681840031898901
68.7613308580085	6.02123697174375	Jitter1	Att	Val	CueFace2	Mas	1	0.681840031898901
74.7655666688388	0.5	target	Att	Val	Face	Mas	1	0.681840031898901
75.2824095880796	3.21840794646414	Jitter2	Att	Val	Face	Mas	1	0.681840031898901
78.5181800044566	0.5	cue	Att	Inval	CueFace2	Mas	0	NaN
79.035175757831	6.03794456020114	Jitter1	Att	Inval	CueFace2	Mas	0	NaN
85.0561245646577	0.5	target	Att	Inval	Word	Mas	0	NaN
85.5729848449446	2.51824973325165	Jitter2	Att	Inval	Word	Mas	0	NaN
88.1082390120937	0.5	cue	Att	Inval	CueFace2	Mas	1	1.09360080350325
88.6252731874565	5.33743258008235	Jitter1	Att	Inval	CueFace2	Mas	1	1.09360080350325
93.945671592176	0.5	target	Att	Inval	Word	Mas	1	1.09360080350325
94.4625839556038	6.01835375722931	Jitter2	Att	Inval	Word	Mas	1	1.09360080350325
100.483649451434	0.5	cue	Att	Inval	CueName2	Fem	1	0.747314231817654
101.000606213604	4.62021016543349	Jitter1	Att	Inval	CueName2	Fem	1	0.747314231817654
105.603859616867	0.5	target	Att	Inval	Face	Fem	1	0.747314231817654
106.120728150767	2.51836215314506	Jitter2	Att	Inval	Face	Fem	1	0.747314231817654
108.655986587026	0.5	cue	Att	Inval	CueName2	Mas	1	0.931732948391982
109.173016777887	2.53545837290585	Jitter1	Att	Inval	CueName2	Mas	1	0.931732948391982
111.691444959932	0.5	target	Att	Inval	Face	Mas	1	0.931732948391982
112.208330570271	4.61837800577359	Jitter2	Att	Inval	Face	Mas	1	0.931732948391982
116.845025618928	0.5	cue	Att	Val	CueName2	Fem	1	1.28909615259272
117.362091670312	4.63697239849716	Jitter1	Att	Val	CueName2	Fem	1	1.28909615259272
121.981998017425	0.5	target	Att	Val	Word	Fem	1	1.28909615259272
122.498881920121	5.31837826191986	Jitter2	Att	Val	Word	Fem	1	1.28909615259272
127.836098056331	0.5	cue	Att	Val	CueFace2	Mas	1	1.41414663481737
128.353116862899	5.3207702441905	Jitter1	Att	Val	CueFace2	Mas	1	1.41414663481737
133.656868300522	0.5	target	Att	Val	Face	Mas	1	1.41414663481737
134.173751918609	3.9183734805174	Jitter2	Att	Val	Face	Mas	1	1.41414663481737
138.109942102332	0.5	cue	Att	Val	CueFace2	Fem	1	0.868305928968766
138.626977416124	5.32080439706897	Jitter1	Att	Val	CueFace2	Fem	1	0.868305928968766
143.930746499401	0.5	target	Att	Val	Face	Fem	1	0.868305928968766
144.447639509531	3.21836013243319	Jitter2	Att	Val	Face	Fem	1	0.868305928968766
147.683361258056	0.5	cue	Att	Val	CueName2	Fem	1	1.12707859402872
148.200406817711	3.93644761104861	Jitter1	Att	Val	CueName2	Fem	1	1.12707859402872
152.119808869104	0.5	target	Att	Val	Word	Fem	1	1.12707859402872
152.636688787296	2.51845692738516	Jitter2	Att	Val	Word	Fem	1	1.12707859402872
155.171944946697	0.5	cue	Att	Val	CueFace2	Fem	1	1.84169485939401
155.688992213997	6.02126116336694	Jitter1	Att	Val	CueFace2	Fem	1	1.84169485939401
161.693206110064	0.5	target	Att	Val	Face	Fem	1	1.84169485939401
162.210046183231	3.91840877182585	Jitter2	Att	Val	Face	Fem	1	1.84169485939401
166.146376678365	0.5	cue	Att	Val	CueFace2	Mas	1	0.716513173191743
166.663276803678	3.23588468621892	Jitter1	Att	Val	CueFace2	Mas	1	0.716513173191743
169.882261364584	0.5	target	Att	Val	Face	Mas	1	0.716513173191743
170.399152382462	5.31849808160405	Jitter2	Att	Val	Face	Mas	1	0.716513173191743
175.736370795532	0.5	cue	Att	Val	CueName2	Mas	0	NaN
176.253399563356	4.63696329106187	Jitter1	Att	Val	CueName2	Mas	0	NaN
180.873334086594	0.5	target	Att	Val	Word	Mas	0	NaN
181.390188390127	3.2183342331673	Jitter2	Att	Val	Word	Mas	0	NaN
184.625935753312	0.5	cue	Att	Val	CueName2	Mas	1	2.46327925130117
185.142907315063	5.33744538741121	Jitter1	Att	Val	CueName2	Mas	1	2.46327925130117
190.463381140723	0.5	target	Att	Val	Word	Mas	1	2.46327925130117
190.980249105408	2.51850445680884	Jitter2	Att	Val	Word	Mas	1	2.46327925130117
193.515525187321	0.5	cue	Att	Val	CueName2	Mas	1	1.18526001582995
194.032555662789	6.03782758658963	Jitter1	Att	Val	CueName2	Mas	1	1.18526001582995
200.053352773911	0.5	target	Att	Val	Word	Mas	1	1.18526001582995
200.570288190532	6.01842291680987	Jitter2	Att	Val	Word	Mas	1	1.18526001582995
206.591414023115	0.5	cue	Att	Val	CueName2	Mas	1	1.13979399552591
207.108377615861	2.53535904494856	Jitter1	Att	Val	CueName2	Mas	1	1.13979399552591
209.626773068064	0.5	target	Att	Val	Word	Mas	1	1.13979399552591
210.143694538926	5.31838850778422	Jitter2	Att	Val	Word	Mas	1	1.13979399552591
215.48093059765	0.5	cue	Att	Val	CueFace2	Fem	1	1.03763903423624
215.99795765783	3.23593306946441	Jitter1	Att	Val	CueFace2	Fem	1	1.03763903423624
219.216863667114	0.5	target	Att	Val	Face	Fem	1	1.03763903423624
219.733749846668	2.51838492173192	Jitter2	Att	Val	Face	Fem	1	1.03763903423624
222.269003159995	0.5	cue	Att	Inval	CueName2	Mas	1	0.961146830911275
222.786033066248	4.62028274030217	Jitter1	Att	Inval	CueName2	Mas	1	0.961146830911275
227.389285900297	0.5	target	Att	Inval	Face	Mas	1	0.961146830911275
227.906150165087	3.9183814495218	Jitter2	Att	Inval	Face	Mas	1	0.961146830911275
231.842389870484	0.5	cue	Att	Inval	CueName2	Fem	1	1.13518107998789
232.359423192025	5.32076967497505	Jitter1	Att	Inval	CueName2	Fem	1	1.13518107998789
237.663159545459	0.5	target	Att	Inval	Face	Fem	1	1.13518107998789
238.180024664071	3.2183225642666	Jitter2	Att	Inval	Face	Fem	1	1.13518107998789
241.415770035004	0.5	cue	Att	Inval	CueFace2	Mas	0	2.51410442755059
241.932799941257	3.93644789565587	Jitter1	Att	Inval	CueFace2	Mas	0	2.51410442755059
245.85221793066	0.5	target	Att	Inval	Word	Mas	0	2.51410442755059
246.36907792634	3.21815521515873	Jitter2	Att	Inval	Word	Mas	0	2.51410442755059
249.604846635073	0.5	cue	Att	Val	CueFace2	Fem	0	2.18167481734599
250.121872272217	3.91978612897947	Jitter1	Att	Val	CueFace2	Fem	0	2.18167481734599
254.024632764053	0.5	target	Att	Val	Face	Fem	0	2.18167481734599
254.541497882664	4.61838739781524	Jitter2	Att	Val	Face	Fem	0	2.18167481734599
259.17823562242	0.5	cue	Att	Inval	CueFace2	Fem	1	1.51600759673875
259.695214014748	3.23594729983142	Jitter1	Att	Inval	CueFace2	Fem	1	1.51600759673875
262.914182922252	0.5	target	Att	Inval	Word	Fem	1	1.51600759673875
263.431066540339	2.51838662937553	Jitter2	Att	Inval	Word	Fem	1	1.51600759673875
265.966323268955	0.5	cue	Att	Val	CueName2	Mas	1	0.727932472927023
266.483355736674	3.23595043051137	Jitter1	Att	Val	CueName2	Mas	1	0.727932472927023
269.702273699466	0.5	target	Att	Val	Word	Mas	1	0.727932472927023
270.219160732841	3.91834871967967	Jitter2	Att	Val	Word	Mas	1	0.727932472927023
274.155476713002	0.5	cue	Att	Val	CueFace2	Fem	1	0.882463435785212
274.672401029937	4.6202056117163	Jitter1	Att	Val	CueFace2	Fem	1	0.882463435785212
279.275682324718	0.5	target	Att	Val	Face	Fem	1	0.882463435785212
279.792541466576	5.31849267406506	Jitter2	Att	Val	Face	Fem	1	0.882463435785212
285.129850100167	0.5	cue	Att	Val	CueName2	Fem	1	0.754441937686352
285.646864068411	6.03783925549033	Jitter1	Att	Val	CueName2	Fem	1	0.754441937686352
291.667689355658	0.5	target	Att	Val	Word	Fem	1	0.754441937686352
292.184546220657	3.21840680803507	Jitter2	Att	Val	Word	Fem	1	0.754441937686352
295.420317775463	0.5	cue	Att	Inval	CueFace2	Mas	1	1.84975806954208
295.937335443602	3.23596665312925	Jitter1	Att	Inval	CueFace2	Mas	1	1.84975806954208
299.156284428593	0.5	target	Att	Inval	Word	Mas	1	1.84975806954208
299.673154385529	5.31840871490385	Jitter2	Att	Inval	Word	Mas	1	1.84975806954208
305.010376498493	0.5	cue	Att	Inval	CueFace2	Fem	1	1.00709526063292
305.527401281814	3.93645415701758	Jitter1	Att	Inval	CueFace2	Fem	1	1.00709526063292
309.446830655511	0.5	target	Att	Inval	Word	Fem	1	1.00709526063292
309.963683820614	3.21834675588889	Jitter2	Att	Inval	Word	Fem	1	1.00709526063292
313.199451960133	0.5	cue	Att	Inval	CueName2	Fem	1	0.797176581484564
313.716483858638	6.02126258640328	Jitter1	Att	Inval	CueName2	Fem	1	0.797176581484564
319.720714546536	0.5	target	Att	Inval	Face	Fem	1	0.797176581484564
320.237558034992	3.91842499444283	Jitter2	Att	Inval	Face	Fem	1	0.797176581484564
324.173811401541	0.5	cue	Att	Val	CueFace2	Mas	1	1.37252252880444
324.69086179952	2.53547061102017	Jitter1	Att	Val	CueFace2	Mas	1	1.37252252880444
327.209282012561	0.5	target	Att	Val	Face	Mas	1	1.37252252880444
327.726162784576	4.61832393038185	Jitter2	Att	Val	Face	Mas	1	1.37252252880444
332.362894547578	0.5	cue	Att	Inval	CueFace2	Fem	1	0.777921757461627
332.879923030795	4.63694393776404	Jitter1	Att	Inval	CueFace2	Fem	1	0.777921757461627
337.499838485342	0.5	target	Att	Inval	Word	Fem	1	0.777921757461627
338.016714134425	3.91841047946946	Jitter2	Att	Inval	Word	Fem	1	0.777921757461627
341.952918548514	0.5	cue	Att	Inval	CueName2	Mas	0	1.95988715888689
342.469947600945	5.32085989549796	Jitter1	Att	Inval	CueName2	Mas	0	1.95988715888689
347.773778444012	0.5	target	Att	Inval	Face	Mas	0	1.95988715888689
348.290591479483	6.01841494780456	Jitter2	Att	Inval	Face	Mas	0	1.95988715888689
354.32825385152	0.5	cue	Att	Val	CueName2	Mas	1	0.744861201276763
354.845340679238	3.93652189356089	Jitter1	Att	Val	CueName2	Mas	1	0.744861201276763
358.76477574508	0.5	target	Att	Val	Word	Mas	1	0.744861201276763
359.281648832697	4.61845371132222	Jitter2	Att	Val	Word	Mas	1	0.744861201276763
363.918417310046	0.5	cue	Att	Inval	CueName2	Fem	1	0.763444921224618
364.43539712541	3.91973176897955	Jitter1	Att	Inval	CueName2	Fem	1	0.763444921224618
368.338149079025	0.5	target	Att	Inval	Face	Fem	1	0.763444921224618
368.855019605176	4.61832051509373	Jitter2	Att	Inval	Face	Fem	1	0.763444921224618
373.491760475613	0.5	cue	Att	Val	CueFace2	Mas	1	0.806025877067441
374.008769605532	3.91975112227829	Jitter1	Att	Val	CueFace2	Mas	1	0.806025877067441
377.911511597891	0.5	target	Att	Val	Face	Mas	1	0.806025877067441
378.428406884879	6.01838307178332	Jitter2	Att	Val	Face	Mas	1	0.806025877067441
384.466109671156	0.5	cue	Att	Inval	CueName2	Mas	1	0.898088093366823
384.983144131126	6.02125860190063	Jitter1	Att	Inval	CueName2	Mas	1	0.898088093366823
390.987368273057	0.5	target	Att	Inval	Face	Mas	1	0.898088093366823
391.504214322978	3.21837777808742	Jitter2	Att	Inval	Face	Mas	1	0.898088093366823
394.739981324067	0.5	cue	Att	Inval	CueName2	Mas	0	NaN
395.257005538174	3.919786698194	Jitter1	Att	Inval	CueName2	Mas	0	NaN
399.159768022261	0.5	target	Att	Inval	Face	Mas	0	NaN
399.676611226108	5.31837427741721	Jitter2	Att	Inval	Face	Mas	0	NaN
405.013861799805	0.5	cue	Att	Inval	CueFace2	Mas	1	1.86798688415547
405.530889144593	2.53545324997413	Jitter1	Att	Inval	CueFace2	Mas	1	1.86798688415547
408.04931504978	0.5	target	Att	Inval	Word	Mas	1	1.86798688415547
408.566200375511	3.91841674083116	Jitter2	Att	Inval	Word	Mas	1	1.86798688415547
412.502470249285	0.5	cue	Att	Val	CueFace2	Fem	1	0.923363500761297
413.019515524334	2.53543275824632	Jitter1	Att	Val	CueFace2	Fem	1	0.923363500761297
415.537903007531	0.5	target	Att	Val	Face	Fem	1	0.923363500761297
416.054785771797	6.01839217921861	Jitter2	Att	Val	Face	Fem	1	0.923363500761297
422.092514741948	0.5	cue	Att	Val	CueFace2	Mas	1	0.768455148589055
422.609527002547	4.6202636716107	Jitter1	Att	Val	CueFace2	Mas	1	0.768455148589055
427.212778413559	0.5	target	Att	Val	Face	Mas	1	0.768455148589055
427.729642393741	2.51841195942689	Jitter2	Att	Val	Face	Mas	1	0.768455148589055
430.264899406964	0.5	cue	Att	Inval	CueFace2	Mas	0	NaN
430.781954074054	4.63685741713653	Jitter1	Att	Inval	CueFace2	Mas	0	NaN
435.401756824101	0.5	target	Att	Inval	Word	Mas	0	NaN
435.918718424596	4.61829689268598	Jitter2	Att	Inval	Word	Mas	0	NaN
440.555448764562	0.5	cue	Att	Inval	CueName2	Mas	1	0.953669058031664
441.072447648617	3.23599283700332	Jitter1	Att	Inval	CueName2	Mas	1	0.953669058031664
444.291441601566	0.5	target	Att	Inval	Face	Mas	1	0.953669058031664
444.808274844157	2.5183948829872	Jitter2	Att	Inval	Face	Mas	1	0.953669058031664
447.343584509734	0.5	cue	Att	Inval	CueFace2	Fem	1	0.843588636540517
447.860531879863	6.03788963098668	Jitter1	Att	Inval	CueFace2	Fem	1	0.843588636540517
453.88147414072	0.5	target	Att	Inval	Word	Fem	1	0.843588636540517
454.398348082159	4.61834612975326	Jitter2	Att	Inval	Word	Fem	1	0.843588636540517
459.03508012977	0.5	cue	Att	Val	CueName2	Fem	1	1.29250290228265
459.552032907437	5.3374303032233	Jitter1	Att	Val	CueName2	Fem	1	1.29250290228265
464.872510432993	0.5	target	Att	Val	Word	Fem	1	1.29250290228265
465.389390351185	4.61838910545976	Jitter2	Att	Val	Word	Fem	1	1.29250290228265
