onset	duration	section	btype	validity	stim	gender	accuracy	reaction_time
10.0576745361541	0.5	cue	Att	Val	CueName2	Fem	1	0.725185443017836
10.5746964734026	4.63689470069585	Jitter1	Att	Val	CueName2	Fem	1	0.725185443017836
15.1945692368499	0.5	target	Att	Val	Word	Fem	1	0.725185443017836
15.7114941230029	6.01845251597115	Jitter2	Att	Val	Word	Fem	1	0.725185443017836
21.7491969092771	0.5	cue	Att	Val	CueFace2	Fem	1	0.666249242589402
22.2662484456887	4.62026452543432	Jitter1	Att	Val	CueFace2	Fem	1	0.666249242589402
26.8694614347114	0.5	target	Att	Val	Face	Fem	1	0.666249242589402
27.3863413529034	3.21825169704243	Jitter2	Att	Val	Face	Fem	1	0.666249242589402
30.6220890006953	0.5	cue	Att	Inval	CueFace2	Fem	1	0.646108435958013
31.1391271605607	2.53545922672856	Jitter1	Att	Inval	CueFace2	Fem	1	0.646108435958013
33.6575482274238	0.5	target	Att	Inval	Word	Fem	1	0.646108435958013
34.174442375981	3.21842701515561	Jitter2	Att	Inval	Word	Fem	1	0.646108435958013
37.4101826239821	0.5	cue	Att	Val	CueName2	Mas	1	0.575916869613138
37.9271314171492	5.3374439643776	Jitter1	Att	Val	CueName2	Mas	1	0.575916869613138
43.2476265883597	0.5	target	Att	Val	Word	Mas	1	0.575916869613138
43.7644968299028	3.91846967779202	Jitter2	Att	Val	Word	Mas	1	0.575916869613138
47.7007220203268	0.5	cue	Att	Inval	CueFace2	Mas	0	0.565338015316229
48.2177243196675	5.33743599536683	Jitter1	Att	Inval	CueFace2	Mas	0	0.565338015316229
53.5381580156936	0.5	target	Att	Inval	Word	Mas	0	0.565338015316229
54.0550459028927	3.21845661431871	Jitter2	Att	Inval	Word	Mas	0	0.565338015316229
57.2907963967591	0.5	cue	Att	Inval	CueFace2	Fem	1	0.720271982143458
57.807829433692	3.93643964204239	Jitter1	Att	Inval	CueFace2	Fem	1	0.720271982143458
61.7272360388015	0.5	target	Att	Inval	Word	Fem	1	0.720271982143458
62.2441233567843	2.51844155858998	Jitter2	Att	Inval	Word	Fem	1	0.720271982143458
64.7793840699014	0.5	cue	Att	Inval	CueFace2	Fem	1	1.04664201777632
65.2963806770967	5.33741607285629	Jitter1	Att	Inval	CueFace2	Fem	1	1.04664201777632
70.6168001427577	0.5	target	Att	Inval	Word	Fem	1	1.04664201777632
71.1336920144604	4.61842980430447	Jitter2	Att	Inval	Word	Fem	1	1.04664201777632
75.7703867785094	0.5	cue	Att	Val	CueFace2	Mas	1	0.516930293688347
76.2874565297898	2.53550106400508	Jitter1	Att	Val	CueFace2	Mas	1	0.516930293688347
78.8058878425145	0.5	target	Att	Val	Face	Mas	1	0.516930293688347
79.3227677607065	3.21843299191096	Jitter2	Att	Val	Face	Mas	1	0.516930293688347
82.5585168315338	0.5	cue	Att	Inval	CueName2	Fem	1	0.652377481525036
83.0754525327648	3.93641374278013	Jitter1	Att	Inval	CueName2	Fem	1	0.652377481525036
86.9949305743139	0.5	target	Att	Inval	Face	Fem	1	0.652377481525036
87.5118423685235	6.01846361565913	Jitter2	Att	Inval	Face	Fem	1	0.652377481525036
93.5494708722908	0.5	cue	Att	Inval	CueFace2	Mas	1	0.823849695454555
94.0665147243017	6.03789959224378	Jitter1	Att	Inval	CueFace2	Mas	1	0.823849695454555
100.087370464535	0.5	target	Att	Inval	Word	Mas	1	0.823849695454555
100.604357964294	3.91843780177442	Jitter2	Att	Inval	Word	Mas	1	0.823849695454555
104.540601369587	0.5	cue	Att	Val	CueFace2	Mas	1	0.614163255886524
105.05759200003	3.93640719680843	Jitter1	Att	Val	CueFace2	Mas	1	0.614163255886524
108.977008566395	0.5	target	Att	Val	Face	Mas	1	0.614163255886524
109.493924629718	4.618455703574	Jitter2	Att	Val	Face	Mas	1	0.614163255886524
114.130623378271	0.5	cue	Att	Val	CueName2	Mas	1	0.777022113707062
114.647683452902	2.53546264201577	Jitter1	Att	Val	CueName2	Mas	1	0.777022113707062
117.166086020286	0.5	target	Att	Val	Word	Mas	1	0.777022113707062
117.68300208361	6.01843572414145	Jitter2	Att	Val	Word	Mas	1	0.777022113707062
123.720677832192	0.5	cue	Att	Inval	CueFace2	Mas	0	0.761946748261835
124.237745875827	3.93647351031541	Jitter1	Att	Inval	CueFace2	Mas	0	0.761946748261835
128.157151342508	0.5	target	Att	Inval	Word	Mas	0	0.761946748261835
128.67404406803	5.31828633375335	Jitter2	Att	Inval	Word	Mas	0	0.761946748261835
134.011271588533	0.5	cue	Att	Inval	CueName2	Mas	1	0.782980083462462
134.528253965364	5.32075089089267	Jitter1	Att	Inval	CueName2	Mas	1	0.782980083462462
139.832022479426	0.5	target	Att	Inval	Face	Mas	1	0.782980083462462
140.348901828402	6.01833127325153	Jitter2	Att	Inval	Face	Mas	1	0.782980083462462
146.386525493843	0.5	cue	Att	Val	CueName2	Mas	1	1.11987546721866
146.903605775595	3.93649371743595	Jitter1	Att	Val	CueName2	Mas	1	1.11987546721866
150.823019211279	0.5	target	Att	Val	Word	Mas	1	1.11987546721866
151.339941535964	3.21847283693569	Jitter2	Att	Val	Word	Mas	1	1.11987546721866
154.57563738522	0.5	cue	Att	Inval	CueFace2	Fem	1	0.670224068500829
155.092735028018	4.63703045839429	Jitter1	Att	Inval	CueFace2	Fem	1	0.670224068500829
159.712667843614	0.5	target	Att	Inval	Word	Fem	1	0.670224068500829
160.229507062959	6.01834721125852	Jitter2	Att	Inval	Word	Fem	1	0.670224068500829
166.267187080648	0.5	cue	Att	Inval	CueFace2	Fem	1	0.795659339830308
166.784187103134	3.2359831603535	Jitter1	Att	Inval	CueFace2	Fem	1	0.795659339830308
170.003170241002	0.5	target	Att	Inval	Word	Fem	1	0.795659339830308
170.520062112704	3.91845544742682	Jitter2	Att	Inval	Word	Fem	1	0.795659339830308
174.456265672969	0.5	cue	Att	Val	CueFace2	Mas	1	0.516935132014623
174.973266264667	3.23602101313008	Jitter1	Att	Val	CueFace2	Mas	1	0.516935132014623
178.192286686099	0.5	target	Att	Val	Face	Mas	1	0.516935132014623
178.709137574344	2.51836699146952	Jitter2	Att	Val	Face	Mas	1	0.516935132014623
181.244301520972	0.5	cue	Att	Val	CueFace2	Mas	1	0.73812426126824
181.761419086281	4.62026054092712	Jitter1	Att	Val	CueFace2	Mas	1	0.73812426126824
186.364562061899	0.5	target	Att	Val	Face	Mas	1	0.73812426126824
186.881533908258	6.0184354395351	Jitter2	Att	Val	Face	Mas	1	0.73812426126824
192.919179488465	0.5	cue	Att	Inval	CueName2	Fem	1	0.775186965667672
193.436240701521	4.62034393087743	Jitter1	Att	Inval	CueName2	Fem	1	0.775186965667672
198.039523419342	0.5	target	Att	Inval	Face	Fem	1	0.775186965667672
198.556389107169	2.51843472801193	Jitter2	Att	Inval	Face	Fem	1	0.775186965667672
201.091646689605	0.5	cue	Att	Inval	CueName2	Mas	1	0.926518372965802
201.60867318057	3.93641459659921	Jitter1	Att	Inval	CueName2	Mas	1	0.926518372965802
205.528061286204	0.5	target	Att	Inval	Face	Mas	1	0.926518372965802
206.04497364963	2.51844212780634	Jitter2	Att	Inval	Face	Mas	1	0.926518372965802
208.580228670602	0.5	cue	Att	Val	CueFace2	Fem	1	0.653547502242873
209.097259430677	5.32072072251685	Jitter1	Att	Val	CueFace2	Fem	1	0.653547502242873
214.400949393119	0.5	target	Att	Val	Face	Fem	1	0.653547502242873
214.917862610368	3.91839112617163	Jitter2	Att	Val	Face	Fem	1	0.653547502242873
218.853996726448	0.5	cue	Att	Val	CueName2	Fem	1	1.03049795182596
219.371066762335	6.03794854470107	Jitter1	Att	Val	CueName2	Fem	1	1.03049795182596
225.391945271149	0.5	target	Att	Val	Word	Fem	1	1.03049795182596
225.908906017823	5.31844457542684	Jitter2	Att	Val	Word	Fem	1	1.03049795182596
231.246070070894	0.5	cue	Att	Inval	CueFace2	Mas	0	0.704260543207056
231.763118476621	3.23602015930373	Jitter1	Att	Inval	CueFace2	Mas	0	0.704260543207056
234.982090230198	0.5	target	Att	Inval	Word	Mas	0	0.704260543207056
235.498963033209	6.01837567199254	Jitter2	Att	Inval	Word	Mas	0	0.704260543207056
241.536601498228	0.5	cue	Att	Val	CueFace2	Mas	0	0.94039667999823
242.05365730375	6.02128706263466	Jitter1	Att	Val	CueFace2	Mas	0	0.94039667999823
248.057888560863	0.5	target	Att	Val	Face	Mas	0	0.94039667999823
248.574801208899	3.91843210962543	Jitter2	Att	Val	Face	Mas	0	0.94039667999823
252.511003630734	0.5	cue	Att	Inval	CueFace2	Mas	1	0.830268444475223
253.028032398561	4.63697296771352	Jitter1	Att	Inval	CueFace2	Mas	1	0.830268444475223
257.647976598448	0.5	target	Att	Inval	Word	Mas	1	0.830268444475223
258.164861354966	4.61844061938245	Jitter2	Att	Inval	Word	Mas	1	0.830268444475223
262.801556119015	0.5	cue	Att	Inval	CueName2	Fem	1	0.766154952179932
263.318635262334	5.32253737107749	Jitter1	Att	Inval	CueName2	Fem	1	0.766154952179932
268.624093490092	0.5	target	Att	Inval	Face	Fem	1	0.766154952179932
269.139225350089	3.9184395094162	Jitter2	Att	Inval	Face	Fem	1	0.766154952179932
273.075402726481	0.5	cue	Att	Val	CueFace2	Mas	1	0.733894142580539
273.592492115666	5.32081691979329	Jitter1	Att	Val	CueFace2	Mas	1	0.733894142580539
278.896219646274	0.5	target	Att	Val	Face	Mas	1	0.733894142580539
279.413099564466	5.31843461417157	Jitter2	Att	Val	Face	Mas	1	0.733894142580539
284.750283824655	0.5	cue	Att	Inval	CueName2	Mas	0	0.847497148948605
285.267320276878	4.62029583223921	Jitter1	Att	Inval	CueName2	Mas	0	0.847497148948605
289.870579656894	0.5	target	Att	Inval	Face	Mas	0	0.847497148948605
290.387457298228	4.61845257289315	Jitter2	Att	Inval	Face	Mas	0	0.847497148948605
295.024091156312	0.5	cue	Att	Inval	CueName2	Fem	1	0.821956202918955
295.541180545497	3.23601560558745	Jitter1	Att	Inval	CueName2	Fem	1	0.821956202918955
298.7601067619	0.5	target	Att	Inval	Face	Fem	1	0.821956202918955
299.277025671297	3.21836354771949	Jitter2	Att	Inval	Face	Fem	1	0.821956202918955
302.512775311337	0.5	cue	Att	Inval	CueFace2	Mas	1	1.11368155798482
303.029777041465	2.53547488013282	Jitter1	Att	Inval	CueFace2	Mas	1	1.11368155798482
305.54825019147	0.5	target	Att	Inval	Word	Mas	1	1.11368155798482
306.065121571442	2.51837979879929	Jitter2	Att	Inval	Word	Mas	1	1.11368155798482
308.600390253567	0.5	cue	Att	Val	CueFace2	Fem	1	0.730145294885006
309.117463420131	2.53543645813988	Jitter1	Att	Val	CueFace2	Fem	1	0.730145294885006
311.635826711707	0.5	target	Att	Val	Face	Fem	1	0.730145294885006
312.152720860267	6.01830565858836	Jitter2	Att	Val	Face	Fem	1	0.730145294885006
318.190352210106	0.5	cue	Att	Val	CueName2	Fem	1	0.735560803081171
318.707455829655	3.23599966757683	Jitter1	Att	Val	CueName2	Fem	1	0.735560803081171
321.926351877682	0.5	target	Att	Val	Word	Fem	1	0.735560803081171
322.443272779332	3.21838603169817	Jitter2	Att	Val	Word	Fem	1	0.735560803081171
325.678986843457	0.5	cue	Att	Val	CueName2	Mas	1	0.860901015563286
326.196001950131	6.03795850595998	Jitter1	Att	Val	CueName2	Mas	1	0.860901015563286
332.216945349417	0.5	target	Att	Val	Word	Mas	1	0.860901015563286
332.733824983003	4.61839109770881	Jitter2	Att	Val	Word	Mas	1	0.860901015563286
337.370560730509	0.5	cue	Att	Val	CueName2	Fem	1	0.791759365645703
337.887628489534	2.53542137395198	Jitter1	Att	Val	CueName2	Fem	1	0.791759365645703
340.405982104461	0.5	target	Att	Val	Word	Fem	1	0.791759365645703
340.922899875426	2.51827364026758	Jitter2	Att	Val	Word	Fem	1	0.791759365645703
343.458158880901	0.5	cue	Att	Val	CueName2	Mas	1	1.07468608523413
343.975179679721	4.63690807724197	Jitter1	Att	Val	CueName2	Mas	1	1.07468608523413
348.595066958143	0.5	target	Att	Val	Word	Mas	1	1.07468608523413
349.111977044711	2.5183368230937	Jitter2	Att	Val	Word	Mas	1	1.07468608523413
351.647224665892	0.5	cue	Att	Inval	CueName2	Fem	1	0.789195622852276
352.164278479162	6.02122188755675	Jitter1	Att	Inval	CueName2	Fem	1	0.789195622852276
358.168446553449	0.5	target	Att	Inval	Face	Fem	1	0.789195622852276
358.685359770698	4.61826814734741	Jitter2	Att	Inval	Face	Fem	1	0.789195622852276
363.322088118413	0.5	cue	Att	Val	CueFace2	Fem	1	0.711116164475243
363.839124855243	3.93641744267006	Jitter1	Att	Val	CueFace2	Fem	1	0.711116164475243
367.758505561083	0.5	target	Att	Val	Face	Fem	1	0.711116164475243
368.275415932261	4.61819699551415	Jitter2	Att	Val	Face	Fem	1	0.711116164475243
372.912114680814	0.5	cue	Att	Val	CueName2	Mas	1	1.29345946750618
373.429193824137	3.2359743375273	Jitter1	Att	Val	CueName2	Mas	1	1.29345946750618
376.648089018341	0.5	target	Att	Val	Word	Mas	1	1.29345946750618
377.164984020721	5.31843404495521	Jitter2	Att	Val	Word	Mas	1	1.29345946750618
382.502119328452	0.5	cue	Att	Inval	CueFace2	Fem	1	0.757381077542959
383.019233193867	6.03797273632517	Jitter1	Att	Inval	CueFace2	Fem	1	0.757381077542959
389.040092064777	0.5	target	Att	Inval	Word	Fem	1	0.757381077542959
389.5570081281	5.31827068035273	Jitter2	Att	Inval	Word	Fem	1	0.757381077542959
394.894135751434	0.5	cue	Att	Val	CueFace2	Fem	1	0.757934354183817
395.411239086377	6.02130812357427	Jitter1	Att	Val	CueFace2	Fem	1	0.757934354183817
401.415443875008	0.5	target	Att	Val	Face	Fem	1	0.757934354183817
401.932356523044	5.31844030631692	Jitter2	Att	Val	Face	Fem	1	0.757934354183817
407.269574651506	0.5	cue	Att	Val	CueFace2	Fem	1	0.807834272014588
407.786608826867	3.2359601071621	Jitter1	Att	Val	CueFace2	Fem	1	0.807834272014588
411.005534758668	0.5	target	Att	Val	Face	Fem	1	0.807834272014588
411.522413823037	2.51844867377076	Jitter2	Att	Val	Face	Fem	1	0.807834272014588
414.057636114165	0.5	cue	Att	Inval	CueName2	Fem	1	0.800273963013751
414.574718672775	2.53542422002647	Jitter1	Att	Inval	CueName2	Fem	1	0.800273963013751
417.093060334191	0.5	target	Att	Inval	Face	Fem	1	0.800273963013751
417.61001937322	5.31843432956521	Jitter2	Att	Inval	Face	Fem	1	0.800273963013751
422.947201071944	0.5	cue	Att	Val	CueName2	Fem	1	0.805611488802242
423.46423382427	3.936405773773	Jitter1	Att	Val	CueName2	Fem	1	0.805611488802242
427.383606845717	0.5	target	Att	Val	Word	Fem	1	0.805611488802242
427.900568161604	3.91842670208644	Jitter2	Att	Val	Word	Fem	1	0.805611488802242
431.83673244606	0.5	cue	Att	Inval	CueName2	Mas	1	0.895079793932382
432.353846596081	6.02131836943954	Jitter1	Att	Inval	CueName2	Mas	1	0.895079793932382
438.358050815499	0.5	target	Att	Inval	Face	Mas	1	0.895079793932382
438.874931587514	3.91838401098721	Jitter2	Att	Inval	Face	Mas	1	0.895079793932382
442.811093879718	0.5	cue	Att	Inval	CueName2	Mas	1	0.774518138448911
443.328194937803	2.53550163322143	Jitter1	Att	Inval	CueName2	Mas	1	0.774518138448911
445.84659551294	0.5	target	Att	Inval	Face	Mas	1	0.774518138448911
446.363515845369	5.31830341019668	Jitter2	Att	Inval	Face	Mas	1	0.774518138448911
451.700728850901	0.5	cue	Att	Val	CueName2	Fem	1	0.922873122337478
452.217731434852	5.33744026448039	Jitter1	Att	Val	CueName2	Fem	1	0.922873122337478
457.538169115382	0.5	target	Att	Val	Word	Fem	1	0.922873122337478
458.055050456609	4.61845285749951	Jitter2	Att	Val	Word	Fem	1	0.922873122337478
462.691703667992	0.5	cue	Att	Inval	CueName2	Mas	1	0.905266743946413
463.208779111417	3.23602812831086	Jitter1	Att	Inval	CueName2	Mas	1	0.905266743946413
466.427731796302	0.5	target	Att	Inval	Face	Mas	1	0.905266743946413
466.944615414392	3.21829609578344	Jitter2	Att	Inval	Face	Mas	1	0.905266743946413
