onset	duration	section	btype	validity	stim	gender	accuracy	reaction_time
10.0686640788263	0.5	cue	Att	Val	CueFace2	Fem	1	0.52214003078916
10.5856595475925	4.6369157616391	Jitter1	Att	Val	CueFace2	Fem	1	0.52214003078916
15.2055798404654	0.5	target	Att	Val	Face	Fem	1	0.52214003078916
15.7224668738418	2.51843273576196	Jitter2	Att	Val	Face	Fem	1	0.52214003078916
18.2577230332408	0.5	cue	Att	Val	CueFace2	Mas	1	0.453720429653913
18.7747543625319	4.62028757862754	Jitter1	Att	Val	CueFace2	Mas	1	0.453720429653913
23.3780106118684	0.5	target	Att	Val	Face	Mas	1	0.453720429653913
23.8948765843015	4.61838995928156	Jitter2	Att	Val	Face	Mas	1	0.453720429653913
28.5315300802904	0.5	cue	Att	Inval	CueFace2	Mas	1	0.331038449596235
29.0486263000494	4.63705123472573	Jitter1	Att	Inval	CueFace2	Mas	1	0.331038449596235
33.6685813150161	0.5	target	Att	Inval	Word	Mas	1	0.331038449596235
34.1855861758249	4.61837487509183	Jitter2	Att	Inval	Word	Mas	1	0.331038449596235
38.8221030602963	0.5	cue	Att	Inval	CueName1	Mas	1	0.436627482878976
39.3392083874915	5.32090144816721	Jitter1	Att	Inval	CueName1	Mas	1	0.436627482878976
44.6430045084635	0.5	target	Att	Inval	Face	Mas	1	0.436627482878976
45.1599720857121	5.3182672650637	Jitter2	Att	Inval	Face	Mas	1	0.436627482878976
50.4970490489413	0.5	cue	Att	Val	CueFace2	Fem	0	0.491021634994468
51.0140724092253	2.53543759657077	Jitter1	Att	Val	CueFace2	Fem	0	0.491021634994468
53.5324866455121	0.5	target	Att	Val	Face	Fem	0	0.491021634994468
54.0493867708246	6.0184234860244	Jitter2	Att	Val	Face	Fem	0	0.491021634994468
60.0705629789045	0.5	cue	Att	Val	CueName1	Mas	1	0.624041976165245
60.5875883314402	4.63683578697965	Jitter1	Att	Val	CueName1	Mas	1	0.624041976165245
65.2073987658841	0.5	target	Att	Val	Word	Mas	1	0.624041976165245
65.7242820993652	3.91846427025484	Jitter2	Att	Val	Word	Mas	1	0.624041976165245
69.6604489452875	0.5	cue	Att	Val	CueName1	Mas	1	0.546863869185472
70.1775218272469	3.23606028893846	Jitter1	Att	Val	CueName1	Mas	1	0.546863869185472
73.396509234226	0.5	target	Att	Val	Word	Mas	1	0.546863869185472
73.9133720759783	6.01827947471793	Jitter2	Att	Val	Word	Mas	1	0.546863869185472
79.9344370025938	0.5	cue	Att	Val	CueFace2	Mas	1	0.516921470862144
80.4514595090568	5.32075800607527	Jitter1	Att	Val	CueFace2	Mas	1	0.516921470862144
85.755195008669	0.5	target	Att	Val	Face	Mas	1	0.516921470862144
86.272064111783	5.31821546653009	Jitter2	Att	Val	Face	Mas	1	0.516921470862144
91.6092887862142	0.5	cue	Att	Val	CueName1	Mas	1	0.521465796033226
92.1264148897444	3.93645558005483	Jitter1	Att	Val	CueName1	Mas	1	0.521465796033226
96.045744366269	0.5	target	Att	Val	Word	Mas	1	0.521465796033226
96.5626268459273	2.5182966934608	Jitter2	Att	Val	Word	Mas	1	0.521465796033226
99.0978314914009	0.5	cue	Att	Val	CueFace2	Mas	1	0.58006274453146
99.6149248650891	6.02130726975338	Jitter1	Att	Val	CueFace2	Mas	1	0.58006274453146
105.619138761154	0.5	target	Att	Val	Face	Mas	1	0.58006274453146
106.136001033694	2.51841025178328	Jitter2	Att	Val	Face	Mas	1	0.58006274453146
108.671226170894	0.5	cue	Att	Val	CueName1	Mas	1	0.618394797606015
109.188394965524	5.33749917819659	Jitter1	Att	Val	CueName1	Mas	1	0.618394797606015
114.508725349091	0.5	target	Att	Val	Word	Mas	1	0.618394797606015
115.025637427912	5.31836488537556	Jitter2	Att	Val	Word	Mas	1	0.618394797606015
120.362778427789	0.5	cue	Att	Val	CueName1	Mas	1	0.442313368035684
120.879833379486	6.03793431433587	Jitter1	Att	Val	CueName1	Mas	1	0.442313368035684
126.900712742125	0.5	target	Att	Val	Word	Mas	1	0.442313368035684
127.417796154556	4.61825192472861	Jitter2	Att	Val	Word	Mas	1	0.442313368035684
132.054388744577	0.5	cue	Att	Inval	CueFace2	Fem	1	0.470652004076328
132.571358314077	6.03793203747773	Jitter1	Att	Inval	CueFace2	Fem	1	0.470652004076328
138.592320782054	0.5	target	Att	Inval	Word	Fem	1	0.470652004076328
139.109207530822	6.01845934654739	Jitter2	Att	Inval	Word	Fem	1	0.470652004076328
145.146959838776	0.5	cue	Att	Inval	CueName1	Fem	1	0.435696816923155
145.66400112932	4.62028387873033	Jitter1	Att	Inval	CueName1	Fem	1	0.435696816923155
150.267243717506	0.5	target	Att	Inval	Face	Fem	1	0.435696816923155
150.784223248262	5.31826925731548	Jitter2	Att	Inval	Face	Fem	1	0.435696816923155
156.121229344266	0.5	cue	Att	Val	CueName1	Fem	1	0.45006265630218
156.638297387901	2.53554574735608	Jitter1	Att	Val	CueName1	Fem	1	0.45006265630218
159.156775091622	0.5	target	Att	Val	Word	Fem	1	0.45006265630218
159.673748645624	3.21829638039162	Jitter2	Att	Val	Word	Fem	1	0.45006265630218
162.90935313593	0.5	cue	Att	Inval	CueFace2	Mas	1	0.579987892804638
163.426443378938	5.33752308521252	Jitter1	Att	Inval	CueFace2	Mas	1	0.579987892804638
168.746876221143	0.5	target	Att	Inval	Word	Mas	1	0.579987892804638
169.263732232319	3.91826561434209	Jitter2	Att	Inval	Word	Mas	1	0.579987892804638
173.199945184628	0.5	cue	Att	Inval	CueName1	Mas	1	0.39747519149023
173.717011805227	6.02130214682256	Jitter1	Att	Inval	CueName1	Mas	1	0.39747519149023
179.72124733145	0.5	target	Att	Inval	Face	Mas	1	0.39747519149023
180.238254469117	6.01826467513638	Jitter2	Att	Inval	Face	Mas	1	0.39747519149023
186.25917709207	0.5	cue	Att	Val	CueName1	Fem	1	0.516869387720362
186.776191344919	4.63699858237123	Jitter1	Att	Val	CueName1	Fem	1	0.516869387720362
191.396175674441	0.5	target	Att	Val	Word	Fem	1	0.516869387720362
191.912995825094	2.51830523168064	Jitter2	Att	Val	Word	Fem	1	0.516869387720362
194.448242023238	0.5	cue	Att	Inval	CueName1	Mas	1	0.57792477429939
194.965275913994	3.93646070298564	Jitter1	Att	Inval	CueName1	Mas	1	0.57792477429939
198.884702726224	0.5	target	Att	Inval	Face	Mas	1	0.57792477429939
199.401590044206	3.21824486646801	Jitter2	Att	Inval	Face	Mas	1	0.57792477429939
202.63733968425	0.5	cue	Att	Val	CueName1	Fem	1	0.555773216914531
203.154372721185	5.33743997987222	Jitter1	Att	Val	CueName1	Fem	1	0.555773216914531
208.474779664122	0.5	target	Att	Val	Word	Fem	1	0.555773216914531
208.991658728493	5.318430629668	Jitter2	Att	Val	Word	Fem	1	0.555773216914531
214.32885408837	0.5	cue	Att	Val	CueName1	Fem	1	0.595562174888983
214.845924693471	6.03809198679483	Jitter1	Att	Val	CueName1	Fem	1	0.595562174888983
220.866946075164	0.5	target	Att	Val	Word	Fem	1	0.595562174888983
221.383709304353	6.0183984405794	Jitter2	Att	Val	Word	Fem	1	0.595562174888983
227.404768254215	0.5	cue	Att	Inval	CueFace2	Mas	0	0.593770287165171
227.921784783925	3.23593904621885	Jitter1	Att	Inval	CueFace2	Mas	0	0.593770287165171
231.140707300434	0.5	target	Att	Inval	Word	Mas	0	0.593770287165171
231.657598318312	3.21837977033829	Jitter2	Att	Inval	Word	Mas	0	0.593770287165171
234.893361904113	0.5	cue	Att	Inval	CueName1	Fem	1	0.565583631436311
235.410381849109	2.53545296536686	Jitter1	Att	Inval	CueName1	Fem	1	0.565583631436311
237.92881486948	0.5	target	Att	Inval	Face	Fem	1	0.565583631436311
238.445702756677	4.61838796702978	Jitter2	Att	Inval	Face	Fem	1	0.565583631436311
243.082440496433	0.5	cue	Att	Val	CueFace2	Mas	1	0.483950281377474
243.599409212113	3.23596039176846	Jitter1	Att	Val	CueFace2	Mas	1	0.483950281377474
246.818400888202	0.5	target	Att	Val	Face	Mas	1	0.483950281377474
247.335280521787	6.0184394240332	Jitter2	Att	Val	Face	Mas	1	0.483950281377474
253.37300607665	0.5	cue	Att	Val	CueName1	Fem	1	0.460702701178889
253.889973938507	3.93653583932064	Jitter1	Att	Val	CueName1	Fem	1	0.460702701178889
257.809541915971	0.5	target	Att	Val	Word	Fem	1	0.460702701178889
258.326489570705	4.61818105750535	Jitter2	Att	Val	Word	Fem	1	0.460702701178889
262.963050000099	0.5	cue	Att	Val	CueName1	Fem	1	0.579162531559632
263.480118043733	3.23600137522226	Jitter1	Att	Val	CueName1	Fem	1	0.579162531559632
266.699051375321	0.5	target	Att	Val	Word	Fem	1	0.579162531559632
267.215965446392	3.91841275632942	Jitter2	Att	Val	Word	Fem	1	0.579162531559632
271.15217754488	0.5	cue	Att	Inval	CueFace2	Fem	1	0.450529696925514
271.669206312703	2.5354623574076	Jitter1	Att	Inval	CueFace2	Fem	1	0.450529696925514
274.187639902288	0.5	target	Att	Inval	Word	Fem	1	0.450529696925514
274.704682331263	3.91830005182783	Jitter2	Att	Inval	Word	Fem	1	0.450529696925514
278.640752410694	0.5	cue	Att	Inval	CueFace2	Mas	1	0.432901119162125
279.157822731187	3.9364994095813	Jitter1	Att	Inval	CueFace2	Mas	1	0.432901119162125
283.077251820276	0.5	target	Att	Inval	Word	Mas	1	0.432901119162125
283.594218828312	5.31831934820366	Jitter2	Att	Inval	Word	Mas	1	0.432901119162125
288.931279853528	0.5	cue	Att	Inval	CueFace2	Fem	1	0.442828791901775
289.448334236013	3.23601816705559	Jitter1	Att	Inval	CueFace2	Fem	1	0.442828791901775
292.667298020584	0.5	target	Att	Inval	Word	Fem	1	0.442828791901775
293.184320811653	4.6182189102783	Jitter2	Att	Inval	Word	Fem	1	0.442828791901775
297.820889210052	0.5	cue	Att	Inval	CueFace2	Fem	1	0.491570357919045
298.337970914838	5.33751113170365	Jitter1	Att	Inval	CueFace2	Fem	1	0.491570357919045
303.658400341756	0.5	target	Att	Inval	Word	Fem	1	0.491570357919045
304.17522163084	3.21841221557406	Jitter2	Att	Inval	Word	Fem	1	0.491570357919045
307.410908088055	0.5	cue	Att	Val	CueFace2	Fem	1	0.681644791273357
307.927994061953	6.02135622221431	Jitter1	Att	Val	CueFace2	Fem	1	0.681644791273357
313.93226431027	0.5	target	Att	Val	Face	Fem	1	0.681644791273357
314.449130851917	4.61838227488261	Jitter2	Att	Val	Face	Fem	1	0.681644791273357
319.085882537433	0.5	cue	Att	Val	CueFace2	Fem	1	0.480001639338298
319.602911589864	3.23595014590501	Jitter1	Att	Val	CueFace2	Fem	1	0.480001639338298
322.821832683338	0.5	target	Att	Val	Face	Fem	1	0.480001639338298
323.338714878388	5.31837256977451	Jitter2	Att	Val	Face	Fem	1	0.480001639338298
328.675942968106	0.5	cue	Att	Inval	CueName1	Mas	1	1.1538831965845
329.192939290695	3.2359697838092	Jitter1	Att	Inval	CueName1	Mas	1	1.1538831965845
332.411912751915	0.5	target	Att	Inval	Face	Mas	1	1.1538831965845
332.928767340056	2.51840939796239	Jitter2	Att	Inval	Face	Mas	1	1.1538831965845
335.4639902004	0.5	cue	Att	Inval	CueName1	Fem	1	0.441314965535639
335.981080158799	3.93643850361332	Jitter1	Att	Inval	CueName1	Fem	1	0.441314965535639
339.900428704013	0.5	target	Att	Inval	Face	Fem	1	0.441314965535639
340.417425595817	6.01840754801378	Jitter2	Att	Inval	Face	Fem	1	0.441314965535639
346.455111021049	0.5	cue	Att	Inval	CueFace2	Fem	1	0.362094231779338
346.97214007348	3.93644988790584	Jitter1	Att	Inval	CueFace2	Fem	1	0.362094231779338
350.891560908954	0.5	target	Att	Inval	Word	Fem	1	0.362094231779338
351.408593661281	5.31827580328354	Jitter2	Att	Inval	Word	Fem	1	0.362094231779338
356.745698516028	0.5	cue	Att	Inval	CueName1	Fem	1	0.399170881937607
357.262707930553	5.32075715225437	Jitter1	Att	Inval	CueName1	Fem	1	0.399170881937607
362.566455668282	0.5	target	Att	Inval	Face	Fem	1	0.399170881937607
363.083506635478	3.21821242123042	Jitter2	Att	Inval	Face	Fem	1	0.399170881937607
366.319090064841	0.5	cue	Att	Val	CueName1	Mas	1	0.731153658642143
366.836157539261	2.53545609604771	Jitter1	Att	Val	CueName1	Mas	1	0.731153658642143
369.354546160888	0.5	target	Att	Val	Word	Mas	1	0.731153658642143
369.871406725782	3.21837692426561	Jitter2	Att	Val	Word	Mas	1	0.731153658642143
373.107178849805	0.5	cue	Att	Val	CueFace2	Fem	1	0.485612957376361
373.62422754014	5.32077394408407	Jitter1	Att	Val	CueFace2	Fem	1	0.485612957376361
378.927952793889	0.5	target	Att	Val	Face	Fem	1	0.485612957376361
379.444825027684	3.21830064950336	Jitter2	Att	Val	Face	Fem	1	0.485612957376361
382.680546491601	0.5	cue	Att	Inval	CueFace2	Mas	1	0.883010166458917
383.197574690212	6.0378859310913	Jitter1	Att	Inval	CueFace2	Mas	1	0.883010166458917
389.218432422693	0.5	target	Att	Inval	Word	Mas	1	0.883010166458917
389.735386054183	6.01842604749072	Jitter2	Att	Inval	Word	Mas	1	0.883010166458917
395.77311018601	0.5	cue	Att	Val	CueFace2	Mas	0	0.516985222902804
396.290146638232	2.5354731724874	Jitter1	Att	Val	CueFace2	Mas	0	0.516985222902804
398.808583358497	0.5	target	Att	Val	Face	Mas	0	0.516985222902804
399.325506252395	3.21835614793054	Jitter2	Att	Val	Face	Mas	0	0.516985222902804
402.561216901235	0.5	cue	Att	Inval	CueName1	Mas	1	0.7286553755348
403.078173094191	2.53547004180655	Jitter1	Att	Inval	CueName1	Mas	1	0.7286553755348
405.596686943041	0.5	target	Att	Inval	Face	Mas	1	0.7286553755348
406.113572268772	4.61827839320904	Jitter2	Att	Inval	Face	Mas	1	0.7286553755348
410.750459427374	0.5	cue	Att	Inval	CueName1	Fem	1	0.589765577484286
411.267359552687	6.02110178326438	Jitter1	Att	Inval	CueName1	Fem	1	0.589765577484286
417.271561210639	0.5	target	Att	Inval	Face	Fem	1	0.589765577484286
417.788480689251	2.51835048424437	Jitter2	Att	Inval	Face	Fem	1	0.589765577484286
420.323702695772	0.5	cue	Att	Val	CueFace2	Fem	1	0.541787328313148
420.840699587574	3.91979239033935	Jitter1	Att	Val	CueFace2	Fem	1	0.541787328313148
424.743495086112	0.5	target	Att	Val	Face	Fem	1	0.541787328313148
425.260369881373	3.91838486480992	Jitter2	Att	Val	Face	Fem	1	0.541787328313148
429.196611294414	0.5	cue	Att	Val	CueFace2	Mas	1	0.468148598038169
429.713656569462	3.93644846487041	Jitter1	Att	Val	CueFace2	Mas	1	0.468148598038169
433.633059759284	0.5	target	Att	Val	Face	Mas	1	0.468148598038169
434.150011113916	3.91820698523043	Jitter2	Att	Val	Face	Mas	1	0.468148598038169
438.08619475167	0.5	cue	Att	Inval	CueName1	Mas	1	0.430624260554396
438.603184812897	4.62028274030126	Jitter1	Att	Inval	CueName1	Mas	1	0.430624260554396
443.206477491971	0.5	target	Att	Inval	Face	Mas	1	0.430624260554396
443.723491175606	3.91820840826949	Jitter2	Att	Inval	Face	Mas	1	0.430624260554396
447.659575770011	0.5	cue	Att	Inval	CueName1	Fem	1	0.516921470862144
448.176645805897	3.23597206066916	Jitter1	Att	Inval	CueName1	Fem	1	0.516921470862144
451.39554783068	0.5	target	Att	Inval	Face	Fem	1	0.516921470862144
451.912415795365	3.91842129454744	Jitter2	Att	Inval	Face	Fem	1	0.516921470862144
455.848600856156	0.5	cue	Att	Inval	CueFace2	Fem	1	0.483404404525572
456.365672315078	4.63703586592965	Jitter1	Att	Inval	CueFace2	Fem	1	0.483404404525572
460.985636722085	0.5	target	Att	Inval	Word	Fem	1	0.483404404525572
461.502493302478	2.51843188193925	Jitter2	Att	Inval	Word	Fem	1	0.483404404525572
464.037788453081	0.5	cue	Att	Inval	CueFace2	Mas	1	0.835616785343518
464.554799859858	2.53557363887376	Jitter1	Att	Inval	CueFace2	Mas	1	0.835616785343518
467.073362091955	0.5	target	Att	Inval	Word	Mas	1	0.835616785343518
467.590122190462	2.5	Jitter2	Att	Inval	Word	Mas	1	0.835616785343518
