onset	duration	section	btype	validity	stim	gender	accuracy	reaction_time
10.0517407580173	0.5	cue	Exp	Inval	CueName1	Mas	1	0.527577453749473
10.5687661105549	3.93644334193959	Jitter1	Exp	Inval	CueName1	Mas	1	0.527577453749473
14.4881840999569	0.5	target	Exp	Inval	Face	Mas	1	0.527577453749473
15.005115247468	2.51838976005638	Jitter2	Exp	Inval	Face	Mas	1	0.527577453749473
17.540295416713	0.5	cue	Exp	Inval	CueFace2	Fem	1	0.52943821644476
18.0573307305058	6.03795537527913	Jitter1	Exp	Inval	CueFace2	Fem	1	0.52943821644476
24.0782507919921	0.5	target	Exp	Inval	Word	Fem	1	0.52943821644476
24.5951466481947	4.61841130483117	Jitter2	Exp	Inval	Word	Fem	1	0.52943821644476
29.2318638962242	0.5	cue	Exp	Val	CueFace2	Fem	1	0.551487315193299
29.7488815643628	4.62028814784026	Jitter1	Exp	Val	CueFace2	Fem	1	0.551487315193299
34.3521520440645	0.5	target	Exp	Val	Face	Fem	1	0.551487315193299
34.8690106167087	3.91836522690392	Jitter2	Exp	Val	Face	Fem	1	0.551487315193299
38.8052488990688	0.5	cue	Exp	Val	CueName1	Fem	1	0.557859388611178
39.3222409525479	3.93647123345727	Jitter1	Exp	Val	CueName1	Fem	1	0.557859388611178
43.2417201325261	0.5	target	Exp	Val	Word	Fem	1	0.557859388611178
43.7586125734397	3.21838916238084	Jitter2	Exp	Val	Word	Fem	1	0.557859388611178
46.9943215146359	0.5	cue	Exp	Val	CueName1	Mas	1	0.653262610310776
47.5113630897886	3.23595783030032	Jitter1	Exp	Val	CueName1	Mas	1	0.653262610310776
50.7302793449362	0.5	target	Exp	Val	Word	Mas	1	0.653262610310776
51.2471760549615	3.21836582457945	Jitter2	Exp	Val	Word	Mas	1	0.653262610310776
54.4829348024396	0.5	cue	Exp	Inval	CueFace2	Fem	1	0.600064947391729
54.9999450707874	3.93650937083839	Jitter1	Exp	Inval	CueFace2	Fem	1	0.600064947391729
58.919444173278	0.5	target	Exp	Inval	Word	Fem	1	0.600064947391729
59.4362537934612	3.9183689267993	Jitter2	Exp	Inval	Word	Fem	1	0.600064947391729
63.3724784146689	0.5	cue	Exp	Val	CueName1	Fem	1	0.560968723646511
63.8894972212365	6.03792520690331	Jitter1	Exp	Val	CueName1	Fem	1	0.560968723646511
69.9104036215722	0.5	target	Exp	Val	Word	Fem	1	0.560968723646511
70.4272991931666	5.31832333270722	Jitter2	Exp	Val	Word	Fem	1	0.560968723646511
75.7645349672839	0.5	cue	Exp	Inval	CueFace2	Mas	1	0.605368604909017
76.2815369820182	5.33740269631198	Jitter1	Exp	Inval	CueFace2	Mas	1	0.605368604909017
81.6019376635959	0.5	target	Exp	Inval	Word	Mas	1	0.605368604909017
82.1188346582294	2.51828417073739	Jitter2	Exp	Inval	Word	Mas	1	0.605368604909017
84.6540415805612	0.5	cue	Exp	Val	CueName1	Fem	1	0.537289963349394
85.1710919785419	3.2359922677897	Jitter1	Exp	Val	CueName1	Fem	1	0.537289963349394
88.3900338483509	0.5	target	Exp	Val	Word	Fem	1	0.537289963349394
88.9069174664382	4.61838967467338	Jitter2	Exp	Val	Word	Fem	1	0.537289963349394
93.5436492294411	0.5	cue	Exp	Val	CueFace2	Fem	1	0.48375845604096
94.0606802741222	3.9198214202861	Jitter1	Exp	Val	CueFace2	Fem	1	0.48375845604096
97.9634706497272	0.5	target	Exp	Val	Face	Fem	1	0.48375845604096
98.4803369067686	2.51824574874991	Jitter2	Exp	Val	Face	Fem	1	0.48375845604096
101.015561474756	0.5	cue	Exp	Val	CueFace2	Mas	1	0.595867558551618
101.532629802998	3.91976734489435	Jitter1	Exp	Val	CueFace2	Mas	1	0.595867558551618
105.435328819651	0.5	target	Exp	Val	Face	Mas	1	0.595867558551618
105.952221829781	4.61836918294648	Jitter2	Exp	Val	Face	Mas	1	0.595867558551618
110.58893907781	0.5	cue	Exp	Val	CueName1	Mas	1	0.536280461165006
111.106008829089	6.03792036857885	Jitter1	Exp	Val	CueName1	Mas	1	0.536280461165006
117.126859446389	0.5	target	Exp	Val	Word	Mas	1	0.536280461165006
117.643757864056	3.91836750376388	Jitter2	Exp	Val	Word	Mas	1	0.536280461165006
121.579974231654	0.5	cue	Exp	Inval	CueFace2	Fem	1	0.650187143546646
122.096998445761	4.63693824561778	Jitter1	Exp	Inval	CueFace2	Fem	1	0.650187143546646
126.716912477272	0.5	target	Exp	Inval	Word	Fem	1	0.650187143546646
127.233821994625	6.01836713377452	Jitter2	Exp	Inval	Word	Fem	1	0.650187143546646
133.254872406267	0.5	cue	Exp	Val	CueName1	Mas	1	0.598268505949818
133.771887228333	6.03788991559486	Jitter1	Exp	Val	CueName1	Mas	1	0.598268505949818
139.792762321862	0.5	target	Exp	Val	Word	Mas	1	0.598268505949818
140.309658747279	6.01837766424433	Jitter2	Exp	Val	Word	Mas	1	0.598268505949818
146.330689805622	0.5	cue	Exp	Val	CueFace2	Fem	1	0.772291086128462
146.847708612189	3.23594189229152	Jitter1	Exp	Val	CueFace2	Fem	1	0.772291086128462
150.066631697913	0.5	target	Exp	Val	Face	Fem	1	0.772291086128462
150.58354320752	3.21839257766806	Jitter2	Exp	Val	Face	Fem	1	0.772291086128462
153.819292847562	0.5	cue	Exp	Val	CueFace2	Mas	1	0.535842450492055
154.33626896303	3.91977218322063	Jitter1	Exp	Val	CueFace2	Mas	1	0.535842450492055
158.239065030783	0.5	target	Exp	Val	Face	Mas	1	0.535842450492055
158.755936410755	4.61839422839148	Jitter2	Exp	Val	Face	Mas	1	0.535842450492055
163.392679273444	0.5	cue	Exp	Inval	CueFace2	Mas	1	0.774253738245534
163.90967274996	3.23592737731815	Jitter1	Exp	Inval	CueFace2	Mas	1	0.774253738245534
167.128606650762	0.5	target	Exp	Inval	Word	Mas	1	0.774253738245534
167.645503930002	3.2183626938986	Jitter2	Exp	Inval	Word	Mas	1	0.774253738245534
170.881235070568	0.5	cue	Exp	Val	CueFace2	Mas	1	0.456721044691221
171.398297137448	5.32078390534116	Jitter1	Exp	Val	CueFace2	Mas	1	0.456721044691221
176.70201897591	0.5	target	Exp	Val	Face	Mas	1	0.456721044691221
177.219049735984	2.51824802560805	Jitter2	Exp	Val	Face	Mas	1	0.456721044691221
179.754160461041	0.5	cue	Exp	Val	CueName1	Mas	1	0.61962202439463
180.27117386007	4.6369069388129	Jitter1	Exp	Val	CueName1	Mas	1	0.61962202439463
184.891067399854	0.5	target	Exp	Val	Word	Mas	1	0.61962202439463
185.407953579408	3.9183484350724	Jitter2	Exp	Val	Word	Mas	1	0.61962202439463
189.344214345747	0.5	cue	Exp	Val	CueName1	Mas	1	0.523027151823044
189.86121550666	2.53546634191116	Jitter1	Exp	Val	CueName1	Mas	1	0.523027151823044
192.379680687658	0.5	target	Exp	Val	Word	Mas	1	0.523027151823044
192.896553775274	4.61840362043404	Jitter2	Exp	Val	Word	Mas	1	0.523027151823044
197.533271023303	0.5	cue	Exp	Val	CueFace2	Mas	1	0.601133078684143
198.050298083483	4.62025342574816	Jitter1	Exp	Val	CueFace2	Mas	1	0.601133078684143
202.653524449051	0.5	target	Exp	Val	Face	Mas	1	0.601133078684143
203.170429981903	6.01847329230623	Jitter2	Exp	Val	Face	Mas	1	0.601133078684143
209.191455063492	0.5	cue	Exp	Val	CueFace2	Fem	1	0.666282257037892
209.708479277599	5.32075288314445	Jitter1	Exp	Val	CueFace2	Fem	1	0.666282257037892
215.012207946636	0.5	target	Exp	Val	Face	Fem	1	0.666282257037892
215.529098679906	5.3182894644342	Jitter2	Exp	Val	Face	Fem	1	0.666282257037892
220.866332177164	0.5	cue	Exp	Val	CueFace2	Mas	1	0.539827237660575
221.383345006978	4.62027960962223	Jitter1	Exp	Val	CueFace2	Mas	1	0.539827237660575
225.986611786786	0.5	target	Exp	Val	Face	Mas	1	0.539827237660575
226.503455559847	2.51840455963793	Jitter2	Exp	Val	Face	Mas	1	0.539827237660575
229.038669597365	0.5	cue	Exp	Inval	CueName1	Mas	1	0.911785105532545
229.555721133775	3.23599056014245	Jitter1	Exp	Inval	CueName1	Mas	1	0.911785105532545
232.774660157507	0.5	target	Exp	Inval	Face	Mas	1	0.911785105532545
233.291554306066	6.01835347262204	Jitter2	Exp	Inval	Face	Mas	1	0.911785105532545
239.312612117499	0.5	cue	Exp	Val	CueName1	Fem	1	0.704381216713955
239.829609293909	5.33735175160109	Jitter1	Exp	Val	CueName1	Fem	1	0.704381216713955
245.1499638691	0.5	target	Exp	Val	Word	Fem	1	0.704381216713955
245.666911523836	2.51836443000502	Jitter2	Exp	Val	Word	Fem	1	0.704381216713955
248.202148614546	0.5	cue	Exp	Val	CueName1	Fem	1	0.726712930536451
248.719145790958	5.33746274845907	Jitter1	Exp	Val	CueName1	Fem	1	0.726712930536451
254.039611363005	0.5	target	Exp	Val	Word	Fem	1	0.726712930536451
254.55647932769	3.21841534625491	Jitter2	Exp	Val	Word	Fem	1	0.726712930536451
257.792209329828	0.5	cue	Exp	Inval	CueName1	Mas	1	0.729231705370694
258.30924236676	5.32076028293341	Jitter1	Exp	Inval	CueName1	Mas	1	0.729231705370694
263.612969612761	0.5	target	Exp	Inval	Face	Mas	1	0.729231705370694
264.129861484462	3.21837635505108	Jitter2	Exp	Inval	Face	Mas	1	0.729231705370694
267.365610839897	0.5	cue	Exp	Val	CueName1	Mas	1	0.644096546775472
267.882666645417	3.93651392455467	Jitter1	Exp	Val	CueName1	Mas	1	0.644096546775472
271.802124764452	0.5	target	Exp	Val	Word	Mas	1	0.644096546775472
272.318940076782	5.31826071909381	Jitter2	Exp	Val	Word	Mas	1	0.644096546775472
277.656198904091	0.5	cue	Exp	Inval	CueName1	Fem	1	0.796671972695549
278.17317388113	6.0212250182376	Jitter1	Exp	Inval	CueName1	Fem	1	0.796671972695549
284.177423922329	0.5	target	Exp	Inval	Face	Fem	1	0.796671972695549
284.694290463976	4.61840988179392	Jitter2	Exp	Inval	Face	Fem	1	0.796671972695549
289.331039303419	0.5	cue	Exp	Val	CueName1	Fem	1	0.69108151637738
289.848034202971	3.23595185354679	Jitter1	Exp	Val	CueName1	Fem	1	0.69108151637738
293.066991156966	0.5	target	Exp	Val	Word	Fem	1	0.69108151637738
293.583861967725	6.0184243398453	Jitter2	Exp	Val	Word	Fem	1	0.69108151637738
299.604912379365	0.5	cue	Exp	Val	CueFace2	Fem	1	1.08785515080854
300.121910978814	6.02124010242551	Jitter1	Exp	Val	CueFace2	Fem	1	1.08785515080854
306.126152481791	0.5	target	Exp	Val	Face	Fem	1	1.08785515080854
306.643019877261	6.01838164874607	Jitter2	Exp	Val	Face	Fem	1	1.08785515080854
312.664091065237	0.5	cue	Exp	Val	CueName1	Fem	1	0.660915132086302
313.181072588246	4.63689014698139	Jitter1	Exp	Val	CueName1	Fem	1	0.660915132086302
317.800981212218	0.5	target	Exp	Val	Word	Fem	1	0.660915132086302
318.317871945488	6.01838620246417	Jitter2	Exp	Val	Word	Fem	1	0.660915132086302
324.338932033779	0.5	cue	Exp	Val	CueFace2	Fem	1	0.641605663458904
324.855878265478	6.02126258640237	Jitter1	Exp	Val	CueFace2	Fem	1	0.641605663458904
330.860194620182	0.5	target	Exp	Val	Face	Fem	1	0.641605663458904
331.377071123086	6.01838079492518	Jitter2	Exp	Val	Face	Fem	1	0.641605663458904
337.398075143734	0.5	cue	Exp	Val	CueFace2	Mas	1	0.68419316526888
337.915088258156	2.53547886463457	Jitter1	Exp	Val	CueFace2	Mas	1	0.68419316526888
340.433554008368	0.5	target	Exp	Val	Face	Mas	1	0.68419316526888
340.950410873367	5.31840928411839	Jitter2	Exp	Val	Face	Mas	1	0.68419316526888
346.287597125809	0.5	cue	Exp	Val	CueFace2	Fem	1	0.826547772905542
346.804660615726	2.53552781709186	Jitter1	Exp	Val	CueFace2	Fem	1	0.826547772905542
349.323124942901	0.5	target	Exp	Val	Face	Fem	1	0.826547772905542
349.839995753659	3.21828300384914	Jitter2	Exp	Val	Face	Fem	1	0.826547772905542
353.075752224278	0.5	cue	Exp	Val	CueFace2	Fem	1	0.741123168660124
353.592791522573	5.32075942911069	Jitter1	Exp	Val	CueFace2	Fem	1	0.741123168660124
358.896511653389	0.5	target	Exp	Val	Face	Fem	1	0.741123168660124
359.41337477975	5.31840985333474	Jitter2	Exp	Val	Face	Fem	1	0.741123168660124
364.750580100883	0.5	cue	Exp	Val	CueFace2	Mas	1	0.61954233434335
365.267604599596	2.53546748034023	Jitter1	Exp	Val	CueFace2	Mas	1	0.61954233434335
367.786047581223	0.5	target	Exp	Val	Face	Mas	1	0.61954233434335
368.30294827575	3.91837006522837	Jitter2	Exp	Val	Face	Mas	1	0.61954233434335
372.239173466174	0.5	cue	Exp	Val	CueName1	Mas	1	0.568994365628896
372.756235533054	5.33737537400884	Jitter1	Exp	Val	CueName1	Mas	1	0.568994365628896
378.076548840183	0.5	target	Exp	Val	Word	Mas	1	0.568994365628896
378.593501333244	4.61839707446416	Jitter2	Exp	Val	Word	Mas	1	0.568994365628896
383.230241919075	0.5	cue	Exp	Val	CueFace2	Fem	1	0.703368299240537
383.747239380093	3.23592709270997	Jitter1	Exp	Val	CueFace2	Fem	1	0.703368299240537
386.966169011785	0.5	target	Exp	Val	Face	Fem	1	0.703368299240537
387.483070844741	4.61836832912377	Jitter2	Exp	Val	Face	Fem	1	0.703368299240537
392.119753370676	0.5	cue	Exp	Val	CueName1	Mas	1	0.650221581034202
392.636803199443	2.5354669111257	Jitter1	Exp	Val	CueName1	Mas	1	0.650221581034202
395.155220281802	0.5	target	Exp	Val	Word	Mas	1	0.650221581034202
395.67214858324	2.51847485764665	Jitter2	Exp	Val	Word	Mas	1	0.650221581034202
398.207362620757	0.5	cue	Exp	Val	CueName1	Fem	1	0.610508328607466
398.724390534759	2.53548398756357	Jitter1	Exp	Val	CueName1	Fem	1	0.610508328607466
401.24284660832	0.5	target	Exp	Val	Word	Fem	1	0.610508328607466
401.759754133423	3.91836551151209	Jitter2	Exp	Val	Word	Fem	1	0.610508328607466
405.696004653899	0.5	cue	Exp	Val	CueFace2	Mas	1	0.589341227961995
406.213032283295	3.23595669187307	Jitter1	Exp	Val	CueFace2	Mas	1	0.589341227961995
409.431961345772	0.5	target	Exp	Val	Face	Mas	1	0.589341227961995
409.948832725744	3.21839997746065	Jitter2	Exp	Val	Face	Mas	1	0.589341227961995
413.184566712385	0.5	cue	Exp	Val	CueName1	Mas	1	0.523761154116073
413.701598610889	4.63698577504147	Jitter1	Exp	Val	CueName1	Mas	1	0.523761154116073
418.321552487427	0.5	target	Exp	Val	Word	Mas	1	0.523761154116073
418.838419598289	5.31828604914699	Jitter2	Exp	Val	Word	Mas	1	0.523761154116073
424.175609835233	0.5	cue	Exp	Val	CueName1	Fem	1	0.617106664849416
424.692642872167	3.93651079387564	Jitter1	Exp	Val	CueName1	Fem	1	0.617106664849416
428.612120629108	0.5	target	Exp	Val	Word	Fem	1	0.617106664849416
429.128956433166	2.51823037995382	Jitter2	Exp	Val	Word	Fem	1	0.617106664849416
431.66413347173	0.5	cue	Exp	Inval	CueName1	Fem	1	0.700658552892492
432.181270674944	4.62040056773367	Jitter1	Exp	Inval	CueName1	Fem	1	0.700658552892492
436.784534039463	0.5	target	Exp	Inval	Face	Fem	1	0.700658552892492
437.301409973154	3.9183287971664	Jitter2	Exp	Inval	Face	Fem	1	0.700658552892492
441.237521320647	0.5	cue	Exp	Inval	CueName1	Fem	1	0.620079672973588
441.754618678837	2.53552127112562	Jitter1	Exp	Inval	CueName1	Fem	1	0.620079672973588
444.273042591773	0.5	target	Exp	Inval	Face	Fem	1	0.620079672973588
444.789944140121	5.31840416118757	Jitter2	Exp	Inval	Face	Fem	1	0.620079672973588
450.127169099158	0.5	cue	Exp	Val	CueFace2	Mas	1	0.740647305210587
450.644196159339	6.0212588865088	Jitter1	Exp	Val	CueFace2	Mas	1	0.740647305210587
456.648427985667	0.5	target	Exp	Val	Face	Mas	1	0.740647305210587
457.165285704488	3.91838144952089	Jitter2	Exp	Val	Face	Mas	1	0.740647305210587
461.101520286953	0.5	cue	Exp	Inval	CueFace2	Mas	1	0.756056230438844
461.618553893102	2.53547174945015	Jitter1	Exp	Inval	CueFace2	Mas	1	0.756056230438844
464.136992036403	0.5	target	Exp	Inval	Word	Mas	1	0.756056230438844
464.653882200459	5.31836545459191	Jitter2	Exp	Inval	Word	Mas	1	0.756056230438844
