onset	duration	section	btype	validity	stim	gender	accuracy	reaction_time
10.0775237702755	0.5	cue	Exp	Inval	CueFace2	Fem	1	0.76119582244246
10.5945483192322	4.63691359823679	Jitter1	Exp	Inval	CueFace2	Fem	1	0.76119582244246
15.2144373685123	0.5	target	Exp	Inval	Word	Fem	1	0.76119582244246
15.7313332756535	2.51898519822225	Jitter2	Exp	Inval	Word	Fem	1	0.76119582244246
18.2665805639294	0.5	cue	Exp	Val	CueName1	Mas	0	1.65918627790279
18.7836890715935	6.0377908101932	Jitter1	Exp	Val	CueName1	Mas	0	1.65918627790279
24.8043713741226	0.5	target	Exp	Val	Word	Mas	0	1.65918627790279
25.3213358712583	6.01823696960855	Jitter2	Exp	Val	Word	Mas	0	1.65918627790279
31.3589075349955	0.5	cue	Exp	Val	CueFace2	Mas	1	0.843706455314532
31.8760211655635	5.32082016557206	Jitter1	Exp	Val	CueFace2	Mas	1	0.843706455314532
37.1797277005676	0.5	target	Exp	Val	Face	Mas	1	0.843706455314532
37.6966119388712	3.21850381599461	Jitter2	Exp	Val	Face	Mas	1	0.843706455314532
40.932297406217	0.5	cue	Exp	Inval	CueName1	Mas	1	1.0817458971228
41.4493182552983	6.02124639119847	Jitter1	Exp	Inval	CueName1	Mas	1	1.0817458971228
47.4535437974155	0.5	target	Exp	Inval	Face	Mas	1	1.0817458971228
47.970428320325	6.01835536561612	Jitter2	Exp	Inval	Face	Mas	1	1.0817458971228
54.0080281600353	0.5	cue	Exp	Val	CueFace2	Fem	1	0.938644115262832
54.5250854386572	3.93648082667733	Jitter1	Exp	Val	CueFace2	Fem	1	0.938644115262832
58.4445089867127	0.5	target	Exp	Val	Face	Fem	1	0.938644115262832
58.9614159934795	6.01826827624518	Jitter2	Exp	Val	Face	Fem	1	0.938644115262832
64.9990701928946	0.5	cue	Exp	Inval	CueFace2	Mas	1	0.954602815548242
65.51611238741	5.33733071647794	Jitter1	Exp	Inval	CueFace2	Mas	1	0.954602815548242
70.8364009093725	0.5	target	Exp	Inval	Word	Mas	1	0.954602815548242
71.3533622758446	5.31840414704811	Jitter2	Exp	Inval	Word	Mas	1	0.954602815548242
76.6905430050729	0.5	cue	Exp	Inval	CueName1	Fem	1	0.696951188969251
77.2075664156064	2.53544082021108	Jitter1	Exp	Inval	CueName1	Fem	1	0.696951188969251
79.7259838252839	0.5	target	Exp	Inval	Face	Fem	1	0.696951188969251
80.2428791632137	3.91841405132891	Jitter2	Exp	Inval	Face	Fem	1	0.696951188969251
84.1790896143934	0.5	cue	Exp	Val	CueFace2	Fem	1	0.782956780903532
84.6961042021476	5.32072510723947	Jitter1	Exp	Val	CueFace2	Fem	1	0.782956780903532
89.9998147216329	0.5	target	Exp	Val	Face	Fem	1	0.782956780903532
90.5167245744574	2.51836931129992	Jitter2	Exp	Val	Face	Fem	1	0.782956780903532
93.0519186414517	0.5	cue	Exp	Val	CueFace2	Mas	1	0.974366125991764
93.5689685203233	3.93641992103858	Jitter1	Exp	Val	CueFace2	Mas	1	0.974366125991764
97.4883385624903	0.5	target	Exp	Val	Face	Mas	1	0.974366125991764
98.0052080012933	4.61843926740221	Jitter2	Exp	Val	Face	Mas	1	0.974366125991764
102.641891638054	0.5	cue	Exp	Val	CueFace2	Fem	1	0.964397808307695
103.158951193523	4.62027696696759	Jitter1	Exp	Val	CueFace2	Fem	1	0.964397808307695
107.762168605022	0.5	target	Exp	Val	Face	Fem	1	0.964397808307695
108.279055689384	4.61831830994242	Jitter2	Exp	Val	Face	Fem	1	0.964397808307695
112.915754125646	0.5	cue	Exp	Val	CueFace2	Mas	1	0.679281438693579
113.432759606015	2.53543285124897	Jitter1	Exp	Val	CueFace2	Mas	1	0.679281438693579
115.951186976895	0.5	target	Exp	Val	Face	Mas	1	0.679281438693579
116.4680663769	4.61852436453182	Jitter2	Exp	Val	Face	Mas	1	0.679281438693579
121.104796689011	0.5	cue	Exp	Val	CueFace2	Fem	1	0.765695439932188
121.621797331081	3.23590689064758	Jitter1	Exp	Val	CueFace2	Fem	1	0.765695439932188
124.840703579658	0.5	target	Exp	Val	Face	Fem	1	0.765695439932188
125.357612294059	5.3185811718472	Jitter2	Exp	Val	Face	Fem	1	0.765695439932188
130.694778223787	0.5	cue	Exp	Val	CueName1	Fem	1	0.733624067631354
131.211822979754	6.03787448429466	Jitter1	Exp	Val	CueName1	Fem	1	0.733624067631354
137.232652708081	0.5	target	Exp	Val	Word	Fem	1	0.733624067631354
137.74955686879	5.31844598409862	Jitter2	Exp	Val	Word	Fem	1	0.733624067631354
143.086731052085	0.5	cue	Exp	Val	CueName1	Fem	1	0.867987598017862
143.603798007304	2.53548038041572	Jitter1	Exp	Val	CueName1	Fem	1	0.867987598017862
146.122211432501	0.5	target	Exp	Val	Word	Fem	1	0.867987598017862
146.639076033005	3.21830032285652	Jitter2	Exp	Val	Word	Fem	1	0.867987598017862
149.874829521134	0.5	cue	Exp	Val	CueFace2	Fem	1	0.865989096183057
150.391811948434	6.02117666278082	Jitter1	Exp	Val	CueFace2	Fem	1	0.865989096183057
156.396006183915	0.5	target	Exp	Val	Face	Fem	1	0.865989096183057
156.912893552882	3.218626196483	Jitter2	Exp	Val	Face	Fem	1	0.865989096183057
160.148538036995	0.5	cue	Exp	Val	CueName1	Fem	1	0.888417170608591
160.665624630013	4.63697478848098	Jitter1	Exp	Val	CueName1	Fem	1	0.888417170608591
165.285512825476	0.5	target	Exp	Val	Word	Fem	1	0.888417170608591
165.802408448011	6.0184353398422	Jitter2	Exp	Val	Word	Fem	1	0.888417170608591
171.823324696496	0.5	cue	Exp	Val	CueName1	Mas	1	0.790465819983638
172.340454549595	3.23602500204925	Jitter1	Exp	Val	CueName1	Mas	1	0.790465819983638
175.559349698546	0.5	target	Exp	Val	Word	Mas	1	0.790465819983638
176.076223406435	3.91835997622957	Jitter2	Exp	Val	Word	Mas	1	0.790465819983638
180.012463172011	0.5	cue	Exp	Val	CueFace2	Mas	1	0.68796846112491
180.529487720968	6.02125350634333	Jitter1	Exp	Val	CueFace2	Mas	1	0.68796846112491
186.533716678355	0.5	target	Exp	Val	Face	Mas	1	0.68796846112491
187.050498743181	3.91858851467669	Jitter2	Exp	Val	Face	Mas	1	0.68796846112491
190.986679026148	0.5	cue	Exp	Val	CueFace2	Fem	1	0.759391421753662
191.503750535059	2.53548778016602	Jitter1	Exp	Val	CueFace2	Fem	1	0.759391421753662
194.022166806314	0.5	target	Exp	Val	Face	Fem	1	0.759391421753662
194.539043360261	3.91862124434192	Jitter2	Exp	Val	Face	Fem	1	0.759391421753662
198.475273733846	0.5	cue	Exp	Val	CueName1	Fem	1	0.792316611415117
198.992313082304	6.0378867223435	Jitter1	Exp	Val	CueName1	Fem	1	0.792316611415117
205.013160456189	0.5	target	Exp	Val	Word	Fem	1	0.792316611415117
205.530022779848	5.31848668272596	Jitter2	Exp	Val	Word	Fem	1	0.792316611415117
210.867238230982	0.5	cue	Exp	Val	CueName1	Mas	1	0.726686232365864
211.384245988197	2.53543569730664	Jitter1	Exp	Val	CueName1	Mas	1	0.726686232365864
213.902673928289	0.5	target	Exp	Val	Word	Mas	1	0.726686232365864
214.41959687298	4.61837067740726	Jitter2	Exp	Val	Word	Mas	1	0.726686232365864
219.056259164307	0.5	cue	Exp	Val	CueFace2	Mas	1	0.904550903452673
219.573294812889	3.93642504394302	Jitter1	Exp	Val	CueFace2	Mas	1	0.904550903452673
223.49268420825	0.5	target	Exp	Val	Face	Mas	1	0.904550903452673
224.009602314642	2.51842110955295	Jitter2	Exp	Val	Face	Mas	1	0.904550903452673
226.544829395908	0.5	cue	Exp	Val	CueName1	Fem	1	0.895979430970328
227.06183259943	3.93635759237168	Jitter1	Exp	Val	CueName1	Fem	1	0.895979430970328
230.981186988279	0.5	target	Exp	Val	Word	Fem	1	0.895979430970328
231.498120178778	3.91848463356428	Jitter2	Exp	Val	Word	Fem	1	0.895979430970328
235.434323799419	0.5	cue	Exp	Val	CueName1	Fem	1	0.778836542927365
235.951350625222	3.23593108213981	Jitter1	Exp	Val	CueName1	Fem	1	0.778836542927365
239.170254881559	0.5	target	Exp	Val	Word	Fem	1	0.778836542927365
239.687152496334	4.61849191947249	Jitter2	Exp	Val	Word	Fem	1	0.778836542927365
244.323751889783	0.5	cue	Exp	Inval	CueName1	Fem	1	0.628724066720679
244.840884019727	3.93650701040951	Jitter1	Exp	Inval	CueName1	Fem	1	0.628724066720679
248.760258900192	0.5	target	Exp	Inval	Face	Fem	1	0.628724066720679
249.277155945756	4.6184580513841	Jitter2	Exp	Inval	Face	Fem	1	0.628724066720679
253.91391443384	0.5	cue	Exp	Val	CueFace2	Mas	1	0.842093878926335
254.430869538985	4.63684586205954	Jitter1	Exp	Val	CueFace2	Mas	1	0.842093878926335
259.050760295899	0.5	target	Exp	Val	Face	Mas	1	0.842093878926335
259.567651933954	6.01845270079502	Jitter2	Exp	Val	Face	Mas	1	0.842093878926335
265.605332601707	0.5	cue	Exp	Val	CueName1	Fem	1	0.649975011611787
266.122351743154	5.33737539958656	Jitter1	Exp	Val	CueName1	Fem	1	0.649975011611787
271.442708001293	0.5	target	Exp	Val	Word	Fem	1	0.649975011611787
271.959605046858	2.51841143295587	Jitter2	Exp	Val	Word	Fem	1	0.649975011611787
274.494846643018	0.5	cue	Exp	Val	CueName1	Fem	1	0.66535482372683
275.011865784465	3.93645976584912	Jitter1	Exp	Val	CueName1	Fem	1	0.66535482372683
278.931306408867	0.5	target	Exp	Val	Word	Fem	1	0.66535482372683
279.448176132276	2.51844729328513	Jitter2	Exp	Val	Word	Fem	1	0.66535482372683
281.983361661096	0.5	cue	Exp	Val	CueName1	Mas	0	1.03177025937839
282.500427762498	5.33742406717602	Jitter1	Exp	Val	CueName1	Mas	0	1.03177025937839
287.820785728272	0.5	target	Exp	Val	Word	Mas	0	1.03177025937839
288.337669112759	5.3184508223967	Jitter2	Exp	Val	Word	Mas	0	1.03177025937839
293.674773852242	0.5	cue	Exp	Val	CueFace2	Fem	1	0.768333166364755
294.191839669038	6.02128908206669	Jitter1	Exp	Val	CueFace2	Fem	1	0.768333166364755
300.196062934308	0.5	target	Exp	Val	Face	Fem	1	0.768333166364755
300.712953718546	3.21849442400344	Jitter2	Exp	Val	Face	Fem	1	0.768333166364755
303.948659962114	0.5	cue	Exp	Val	CueName1	Mas	1	0.771226468793429
304.465681095801	3.93643528975144	Jitter1	Exp	Val	CueName1	Mas	1	0.771226468793429
308.385095251865	0.5	target	Exp	Val	Word	Mas	1	0.771226468793429
308.901977213322	3.21847905529103	Jitter2	Exp	Val	Word	Mas	1	0.771226468793429
312.13761799756	0.5	cue	Exp	Inval	CueFace2	Fem	1	0.855032627207038
312.654719674684	2.53551652535043	Jitter1	Exp	Inval	CueFace2	Fem	1	0.855032627207038
315.17313452291	0.5	target	Exp	Inval	Word	Fem	1	0.855032627207038
315.690001400261	6.01843050154366	Jitter2	Exp	Inval	Word	Fem	1	0.855032627207038
321.72767495287	0.5	cue	Exp	Val	CueName1	Mas	1	0.77150822852218
322.244685556142	4.6368948142549	Jitter1	Exp	Val	CueName1	Mas	1	0.77150822852218
326.864569767125	0.5	target	Exp	Val	Word	Mas	1	0.77150822852218
327.381499257748	2.51846550805567	Jitter2	Exp	Val	Word	Mas	1	0.77150822852218
329.91667795603	0.5	cue	Exp	Val	CueFace2	Mas	1	0.831307034999554
330.433783902241	3.23596181956464	Jitter1	Exp	Val	CueFace2	Mas	1	0.831307034999554
333.652639775594	0.5	target	Exp	Val	Face	Mas	1	0.831307034999554
334.169579227421	5.31843943816511	Jitter2	Exp	Val	Face	Mas	1	0.831307034999554
339.506739749638	0.5	cue	Exp	Val	CueFace2	Mas	1	0.705237201846558
340.023693431754	3.23589294496423	Jitter1	Exp	Val	CueFace2	Mas	1	0.705237201846558
343.242632694602	0.5	target	Exp	Val	Face	Mas	1	0.705237201846558
343.759569300371	2.51855032057983	Jitter2	Exp	Val	Face	Mas	1	0.705237201846558
346.294693923553	0.5	cue	Exp	Val	CueName1	Mas	1	0.745597433083276
346.811778239725	2.53551595613908	Jitter1	Exp	Val	CueName1	Mas	1	0.745597433083276
349.330209879692	0.5	target	Exp	Val	Word	Mas	1	0.745597433083276
349.847138801104	6.01841826349482	Jitter2	Exp	Val	Word	Mas	1	0.745597433083276
355.884796700394	0.5	cue	Exp	Inval	CueFace2	Fem	1	0.954462220289315
356.401818687899	3.93641992103903	Jitter1	Exp	Inval	CueFace2	Fem	1	0.954462220289315
360.321216621433	0.5	target	Exp	Inval	Word	Fem	1	0.954462220289315
360.838111959363	3.21844689483669	Jitter2	Exp	Inval	Word	Fem	1	0.954462220289315
364.073828164133	0.5	cue	Exp	Val	CueName1	Mas	1	0.68983917496189
364.590858689812	3.2359359204379	Jitter1	Exp	Val	CueName1	Mas	1	0.68983917496189
367.809764084571	0.5	target	Exp	Val	Word	Mas	1	0.68983917496189
368.326654014991	3.21856187557478	Jitter2	Exp	Val	Word	Mas	1	0.68983917496189
371.56229935292	0.5	cue	Exp	Inval	CueName1	Fem	1	0.737223761623227
372.079416967969	3.23600735649052	Jitter1	Exp	Inval	CueName1	Fem	1	0.737223761623227
375.298306709411	0.5	target	Exp	Inval	Face	Fem	1	0.737223761623227
375.815205178004	5.318449683974	Jitter2	Exp	Inval	Face	Fem	1	0.737223761623227
381.152370823126	0.5	cue	Exp	Inval	CueName1	Mas	1	0.802183324833095
381.669369472956	4.63687631487892	Jitter1	Exp	Inval	CueName1	Mas	1	0.802183324833095
386.289247138005	0.5	target	Exp	Inval	Face	Mas	1	0.802183324833095
386.806150729502	3.21851320798532	Jitter2	Exp	Inval	Face	Mas	1	0.802183324833095
390.041851850166	0.5	cue	Exp	Val	CueName1	Fem	1	0.740002652525618
390.558979711023	5.33745195854317	Jitter1	Exp	Val	CueName1	Fem	1	0.740002652525618
395.879303808709	0.5	target	Exp	Val	Word	Fem	1	0.740002652525618
396.396197154398	4.61846715876891	Jitter2	Exp	Val	Word	Fem	1	0.740002652525618
401.032869406928	0.5	cue	Exp	Val	CueFace2	Mas	1	0.94538329568968
401.549896801942	4.63691189060137	Jitter1	Exp	Val	CueFace2	Mas	1	0.94538329568968
406.169781297529	0.5	target	Exp	Val	Face	Mas	1	0.94538329568968
406.686678912305	6.01851645249099	Jitter2	Exp	Val	Face	Mas	1	0.94538329568968
412.724347626616	0.5	cue	Exp	Val	CueName1	Mas	1	0.789713606888654
413.24136420661	4.63693636669996	Jitter1	Exp	Val	CueName1	Mas	1	0.789713606888654
417.861283993316	0.5	target	Exp	Val	Word	Mas	1	0.789713606888654
418.378148878426	3.91845247310994	Jitter2	Exp	Val	Word	Mas	1	0.789713606888654
422.314290455005	0.5	cue	Exp	Val	CueFace2	Fem	1	0.899814209342367
422.8313414723	5.32078601287776	Jitter1	Exp	Val	CueFace2	Fem	1	0.899814209342367
428.135076467883	0.5	target	Exp	Val	Face	Fem	1	0.899814209342367
428.651933384032	5.31848895957228	Jitter2	Exp	Val	Face	Fem	1	0.899814209342367
433.989209740804	0.5	cue	Exp	Inval	CueFace2	Mas	1	0.805701336964376
434.5061329701	3.23587814546318	Jitter1	Exp	Inval	CueFace2	Mas	1	0.805701336964376
437.725087886267	0.5	target	Exp	Inval	Word	Mas	1	0.805701336964376
438.241967001667	4.61838803836054	Jitter2	Exp	Inval	Word	Mas	1	0.805701336964376
442.878652061457	0.5	cue	Exp	Val	CueFace2	Fem	1	1.00062015600997
443.395678602654	2.53545305825992	Jitter1	Exp	Val	CueFace2	Fem	1	1.00062015600997
445.914105119717	0.5	target	Exp	Val	Face	Fem	1	1.00062015600997
446.430995334742	3.91832212365989	Jitter2	Exp	Val	Face	Fem	1	1.00062015600997
450.367163379659	0.5	cue	Exp	Inval	CueName1	Mas	1	0.990633054344471
450.884190205463	5.3208042276483	Jitter1	Exp	Inval	CueName1	Mas	1	0.990633054344471
456.187967607308	0.5	target	Exp	Inval	Face	Mas	1	0.990633054344471
456.704813139225	2.51842367100471	Jitter2	Exp	Inval	Face	Mas	1	0.990633054344471
459.240041643519	0.5	cue	Exp	Inval	CueFace2	Mas	1	0.800555948943838
459.757035739656	6.03788103022725	Jitter1	Exp	Inval	CueFace2	Mas	1	0.800555948943838
465.777922673747	0.5	target	Exp	Inval	Word	Mas	1	0.800555948943838
466.294818296282	3.91861185235121	Jitter2	Exp	Inval	Word	Mas	1	0.800555948943838
