onset	duration	section	btype	validity	stim	gender	accuracy	reaction_time
10.322945032377	0.5	cue	Exp	Val	CueFace2	Fem	1	0.935323334942041
10.839933151793	5.33732616278576	Jitter1	Exp	Val	CueFace2	Fem	1	0.935323334942041
16.1602711951628	0.5	target	Exp	Val	Face	Fem	1	0.935323334942041
16.677251914828	3.92086422254761	Jitter2	Exp	Val	Face	Fem	1	0.935323334942041
20.6134284979189	0.5	cue	Exp	Inval	CueName2	Mas	1	0.782632614912472
21.1304550391169	2.53543996639382	Jitter1	Exp	Inval	CueName2	Mas	1	0.782632614912472
23.6488684643127	0.5	target	Exp	Inval	Face	Mas	1	0.782632614912472
24.1657788863495	3.91942440187177	Jitter2	Exp	Inval	Face	Mas	1	0.782632614912472
28.1019842146252	0.5	cue	Exp	Val	CueName2	Mas	0	0.456251536871605
28.6190144556977	3.26921288285121	Jitter1	Exp	Val	CueName2	Mas	0	0.456251536871605
31.8711970974764	0.5	target	Exp	Val	Word	Mas	0	0.456251536871605
32.3882307538188	4.6183294095681	Jitter2	Exp	Val	Word	Mas	0	0.456251536871605
37.024860600086	0.5	cue	Exp	Val	CueFace2	Mas	1	0.553154968988565
37.541883726014	5.33735149270069	Jitter1	Exp	Val	CueFace2	Mas	1	0.553154968988565
42.8622120927866	0.5	target	Exp	Val	Face	Mas	1	0.553154968988565
43.3791874049421	5.31846789874362	Jitter2	Exp	Val	Face	Mas	1	0.553154968988565
48.7163171897346	0.5	cue	Exp	Inval	CueFace2	Fem	0	0.586930276135718
49.2333753221737	3.23595527363159	Jitter1	Exp	Inval	CueFace2	Fem	0	0.586930276135718
52.4522724633662	0.5	target	Exp	Inval	Word	Fem	0	0.586930276135718
52.9692224456066	3.91842031265605	Jitter2	Exp	Inval	Word	Fem	0	0.586930276135718
56.9054630649998	0.5	cue	Exp	Val	CueFace2	Fem	1	0.432288868043543
57.4224938752841	5.33735063888253	Jitter1	Exp	Val	CueFace2	Fem	1	0.432288868043543
62.7428137038823	0.5	target	Exp	Val	Face	Fem	1	0.432288868043543
63.2598166227999	3.91834859199844	Jitter2	Exp	Val	Face	Fem	1	0.432288868043543
67.1958935938655	0.5	cue	Exp	Val	CueFace2	Mas	1	1.29013254660731
67.7129150121582	4.6369158750831	Jitter1	Exp	Val	CueFace2	Mas	1	1.29013254660731
72.3328094689487	0.5	target	Exp	Val	Face	Mas	1	1.29013254660731
72.8497270061298	2.51821306272268	Jitter2	Exp	Val	Face	Mas	1	1.29013254660731
75.3848769592269	0.5	cue	Exp	Inval	CueFace2	Mas	1	1.04255824172833
75.9019282611271	2.53546245025063	Jitter1	Exp	Inval	CueFace2	Mas	1	1.04255824172833
78.4203394094775	0.5	target	Exp	Inval	Word	Mas	1	1.04255824172833
78.9372967914687	5.31837739410366	Jitter2	Exp	Inval	Word	Mas	1	1.04255824172833
84.2744664210713	0.5	cue	Exp	Val	CueName2	Mas	1	0.722416291745503
84.7914989389901	6.03788473010263	Jitter1	Exp	Val	CueName2	Mas	1	0.722416291745503
90.812351151174	0.5	target	Exp	Val	Word	Mas	1	0.722416291745503
91.3292715344123	3.21828011584603	Jitter2	Exp	Val	Word	Mas	1	0.722416291745503
94.5649803394326	0.5	cue	Exp	Val	CueFace2	Fem	1	0.537827239733815
95.0820080190533	3.23585765384632	Jitter1	Exp	Val	CueFace2	Fem	1	0.537827239733815
98.3008379932789	0.5	target	Exp	Val	Face	Fem	1	0.537827239733815
98.8178266819068	5.31839390123969	Jitter2	Exp	Val	Face	Fem	1	0.537827239733815
104.154961589603	0.5	cue	Exp	Val	CueName2	Mas	1	0.93413225972472
104.672008907023	5.33743317456174	Jitter1	Exp	Val	CueName2	Mas	1	0.93413225972472
109.992394764165	0.5	target	Exp	Val	Word	Mas	1	0.93413225972472
110.509303478566	3.91841518975252	Jitter2	Exp	Val	Word	Mas	1	0.93413225972472
114.445492299707	0.5	cue	Exp	Val	CueName2	Fem	1	0.592017035363824
114.962520833144	4.63692469786201	Jitter1	Exp	Val	CueName2	Fem	1	0.592017035363824
119.582416997569	0.5	target	Exp	Val	Word	Fem	1	0.592017035363824
120.099300951267	3.21823116365067	Jitter2	Exp	Val	Word	Fem	1	0.592017035363824
123.335088876695	0.5	cue	Exp	Val	CueFace2	Mas	1	0.891901883862374
123.852044551052	2.53538105299594	Jitter1	Exp	Val	CueFace2	Mas	1	0.891901883862374
126.370469929691	0.5	target	Exp	Val	Face	Mas	1	0.891901883862374
126.887386897661	3.21843778745188	Jitter2	Exp	Val	Face	Mas	1	0.891901883862374
130.123125017077	0.5	cue	Exp	Inval	CueName2	Fem	1	0.579215751678021
130.64011399031	3.23589835247367	Jitter1	Exp	Inval	CueName2	Fem	1	0.579215751678021
133.85902336955	0.5	target	Exp	Inval	Face	Fem	1	0.579215751678021
134.375978474695	6.01841029453317	Jitter2	Exp	Inval	Face	Fem	1	0.579215751678021
140.413632104899	0.5	cue	Exp	Inval	CueFace2	Fem	1	0.599659554557547
140.930621647344	4.6368393161265	Jitter1	Exp	Inval	CueFace2	Fem	1	0.599659554557547
145.550471421026	0.5	target	Exp	Inval	Word	Fem	1	0.599659554557547
146.06742453393	6.0184083022923	Jitter2	Exp	Inval	Word	Fem	1	0.599659554557547
152.105076456499	0.5	cue	Exp	Val	CueName2	Fem	1	0.675955250862899
152.622165895575	4.63696368885485	Jitter1	Exp	Val	CueName2	Fem	1	0.675955250862899
157.242040145354	0.5	target	Exp	Val	Word	Fem	1	0.675955250862899
157.758909014946	2.51845725448766	Jitter2	Exp	Val	Word	Fem	1	0.675955250862899
160.29416654903	0.5	cue	Exp	Val	CueFace2	Mas	1	0.558541133505059
160.81124488848	6.02121081547557	Jitter1	Exp	Val	CueFace2	Mas	1	0.558541133505059
166.815377364505	0.5	target	Exp	Val	Face	Mas	1	0.558541133505059
167.332251072395	6.01837158814578	Jitter2	Exp	Val	Face	Mas	1	0.558541133505059
173.369873965174	0.5	cue	Exp	Val	CueFace2	Mas	1	0.711394932651274
173.886968811759	3.93646033506047	Jitter1	Exp	Val	CueFace2	Mas	1	0.711394932651274
177.806334300234	0.5	target	Exp	Val	Face	Mas	1	0.711394932651274
178.323246429905	3.21844006429819	Jitter2	Exp	Val	Face	Mas	1	0.711394932651274
181.558931043433	0.5	cue	Exp	Val	CueName2	Fem	1	0.58877622926957
182.076031012924	6.03790636014219	Jitter1	Exp	Val	CueName2	Fem	1	0.58877622926957
188.096837403576	0.5	target	Exp	Val	Word	Fem	1	0.58877622926957
188.613755225362	5.31843602289609	Jitter2	Exp	Val	Word	Fem	1	0.58877622926957
193.950897817415	0.5	cue	Exp	Val	CueName2	Mas	1	0.674135196855786
194.467985548857	3.93645321991607	Jitter1	Exp	Val	CueName2	Mas	1	0.674135196855786
198.387351037331	0.5	target	Exp	Val	Word	Mas	1	0.674135196855786
198.90426060555	2.51838667225275	Jitter2	Exp	Val	Word	Mas	1	0.674135196855786
201.439456095573	0.5	cue	Exp	Inval	CueName2	Mas	1	0.617164518082063
201.956523335398	5.32078117457968	Jitter1	Exp	Inval	CueName2	Mas	1	0.617164518082063
207.260237270153	0.5	target	Exp	Inval	Face	Mas	1	0.617164518082063
207.777147407583	5.31840357783585	Jitter2	Exp	Inval	Face	Mas	1	0.617164518082063
213.11425186246	0.5	cue	Exp	Val	CueName2	Fem	1	0.710570714292771
213.631350124316	3.93652522518005	Jitter1	Exp	Val	CueName2	Fem	1	0.710570714292771
217.55077708764	0.5	target	Exp	Val	Word	Fem	1	0.710570714292771
218.067644818809	6.01836561142409	Jitter2	Exp	Val	Word	Fem	1	0.710570714292771
224.105277957396	0.5	cue	Exp	Val	CueFace2	Mas	1	0.64748499558209
224.622313036767	3.9364281746075	Jitter1	Exp	Val	CueFace2	Mas	1	0.64748499558209
228.541706132003	0.5	target	Exp	Val	Face	Mas	1	0.64748499558209
229.058618830885	3.91823759574163	Jitter2	Exp	Val	Face	Mas	1	0.64748499558209
232.994838958662	0.5	cue	Exp	Val	CueFace2	Mas	1	0.882302130672542
233.511840739156	3.23591286736973	Jitter1	Exp	Val	CueFace2	Mas	1	0.882302130672542
236.730751826031	0.5	target	Exp	Val	Face	Mas	1	0.882302130672542
237.247664809519	2.51828905246839	Jitter2	Exp	Val	Face	Mas	1	0.882302130672542
239.782853469003	0.5	cue	Exp	Val	CueFace2	Fem	1	0.86087558401141
240.299903917086	6.02124098368859	Jitter1	Exp	Val	CueFace2	Fem	1	0.86087558401141
246.304094452692	0.5	target	Exp	Val	Face	Fem	1	0.86087558401141
246.821006297757	3.21838741222746	Jitter2	Exp	Val	Face	Fem	1	0.86087558401141
250.056701157094	0.5	cue	Exp	Inval	CueFace2	Fem	1	0.738224720175822
250.573771812188	6.0379365283552	Jitter1	Exp	Inval	CueFace2	Fem	1	0.738224720175822
256.594637685449	0.5	target	Exp	Inval	Word	Fem	1	0.738224720175822
257.111512531762	3.2183925351319	Jitter2	Exp	Inval	Word	Fem	1	0.738224720175822
260.347217067695	0.5	cue	Exp	Inval	CueName2	Fem	1	0.536244262347282
260.864279753828	6.02125606779555	Jitter1	Exp	Inval	CueName2	Fem	1	0.536244262347282
266.868473135491	0.5	target	Exp	Inval	Face	Fem	1	0.536244262347282
267.385344281928	4.6184523592683	Jitter2	Exp	Inval	Face	Fem	1	0.536244262347282
272.02202450342	0.5	cue	Exp	Val	CueName2	Fem	1	0.75859907924314
272.53905360607	3.23597121155581	Jitter1	Exp	Val	CueName2	Fem	1	0.75859907924314
275.757995714976	0.5	target	Exp	Val	Word	Fem	1	0.75859907924314
276.274880522491	2.51842680166828	Jitter2	Exp	Val	Word	Fem	1	0.75859907924314
278.810061497618	0.5	cue	Exp	Val	CueName2	Mas	1	0.751025719255267
279.327113653337	2.5354769651467	Jitter1	Exp	Val	CueName2	Mas	1	0.751025719255267
281.845538462765	0.5	target	Exp	Val	Word	Mas	1	0.751025719255267
282.362512351891	3.91833720776685	Jitter2	Exp	Val	Word	Mas	1	0.751025719255267
286.298646244115	0.5	cue	Exp	Inval	CueFace2	Mas	1	0.573372225662752
286.815626394568	3.9364287438184	Jitter1	Exp	Inval	CueFace2	Mas	1	0.573372225662752
290.735074987933	0.5	target	Exp	Inval	Word	Mas	1	0.573372225662752
291.251987117604	4.61839686114035	Jitter2	Exp	Inval	Word	Mas	1	0.573372225662752
295.888665346855	0.5	cue	Exp	Val	CueFace2	Fem	1	0.712252165280916
296.405693595687	2.53544736614367	Jitter1	Exp	Val	CueFace2	Fem	1	0.712252165280916
298.924112712999	0.5	target	Exp	Val	Face	Fem	1	0.712252165280916
299.441026550305	5.31841410825018	Jitter2	Exp	Val	Face	Fem	1	0.712252165280916
304.778193049244	0.5	cue	Exp	Val	CueName2	Mas	1	0.805668607298685
305.295169215216	3.93643557435735	Jitter1	Exp	Val	CueName2	Mas	1	0.805668607298685
309.214628623601	0.5	target	Exp	Val	Word	Mas	1	0.805668607298685
309.731533353522	3.21840790384431	Jitter2	Exp	Val	Word	Mas	1	0.805668607298685
312.967245004599	0.5	cue	Exp	Val	CueName2	Mas	1	0.727551149351712
313.484217470697	5.33739389896346	Jitter1	Exp	Val	CueName2	Mas	1	0.727551149351712
318.804638903563	0.5	target	Exp	Val	Word	Mas	1	0.727551149351712
319.321560994435	4.61845918980725	Jitter2	Exp	Val	Word	Mas	1	0.727551149351712
323.958201086512	0.5	cue	Exp	Val	CueFace2	Mas	1	0.660939164943557
324.476274977004	4.63691644429491	Jitter1	Exp	Val	CueFace2	Mas	1	0.660939164943557
329.095117530806	0.5	target	Exp	Val	Face	Mas	1	0.660939164943557
329.612060967113	4.61838661533147	Jitter2	Exp	Val	Face	Mas	1	0.660939164943557
334.248737204124	0.5	cue	Exp	Val	CueName2	Mas	1	0.666238809300012
334.765779114034	4.63691359823679	Jitter1	Exp	Val	CueName2	Mas	1	0.666238809300012
339.385650802361	0.5	target	Exp	Val	Word	Mas	1	0.666238809300012
339.902569477965	5.31839873953777	Jitter2	Exp	Val	Word	Mas	1	0.666238809300012
345.239735407692	0.5	cue	Exp	Val	CueName2	Mas	1	0.608600729957288
345.756767071794	2.53544907377909	Jitter1	Exp	Val	CueName2	Mas	1	0.608600729957288
348.275184481471	0.5	target	Exp	Val	Word	Mas	1	0.608600729957288
348.79210144944	6.01837101893398	Jitter2	Exp	Val	Word	Mas	1	0.608600729957288
354.829735726451	0.5	cue	Exp	Val	CueName2	Fem	1	0.836064789938973
355.346755152504	6.03785000819607	Jitter1	Exp	Val	CueName2	Fem	1	0.836064789938973
361.367585734647	0.5	target	Exp	Val	Word	Fem	1	0.836064789938973
361.884572431035	5.31837198659377	Jitter2	Exp	Val	Word	Fem	1	0.836064789938973
367.221740068397	0.5	cue	Exp	Val	CueFace2	Fem	1	0.740908837351526
367.738758356026	4.63690989836141	Jitter1	Exp	Val	CueFace2	Fem	1	0.740908837351526
372.358649966758	0.5	target	Exp	Val	Face	Fem	1	0.740908837351526
372.87558571871	2.51831295935335	Jitter2	Exp	Val	Face	Fem	1	0.740908837351526
375.410757586452	0.5	cue	Exp	Val	CueFace2	Mas	1	0.583369288530776
375.927808603747	6.02123813763137	Jitter1	Exp	Val	CueFace2	Mas	1	0.583369288530776
381.931995724083	0.5	target	Exp	Val	Face	Mas	1	0.583369288530776
382.44889931558	6.01839236436808	Jitter2	Exp	Val	Face	Mas	1	0.583369288530776
388.486502285954	0.5	cue	Exp	Val	CueName2	Fem	1	0.585335629912151
389.003555580095	2.53550428730159	Jitter1	Exp	Val	CueName2	Fem	1	0.585335629912151
391.522006573256	0.5	target	Exp	Val	Word	Fem	1	0.585335629912151
392.038920979773	4.61838946138869	Jitter2	Exp	Val	Word	Fem	1	0.585335629912151
396.675557371973	0.5	cue	Exp	Val	CueName2	Fem	1	0.751601192157068
397.192605827816	3.23603354022271	Jitter1	Exp	Val	CueName2	Fem	1	0.751601192157068
400.411590912196	0.5	target	Exp	Val	Word	Fem	1	0.751601192157068
400.928452382037	6.01844444722701	Jitter2	Exp	Val	Word	Fem	1	0.751601192157068
406.966066736642	0.5	cue	Exp	Val	CueName2	Fem	1	0.543506832815183
407.483102100618	5.33747899609261	Jitter1	Exp	Val	CueName2	Fem	1	0.543506832815183
412.803545732735	0.5	target	Exp	Val	Word	Fem	1	0.543506832815183
413.320424848134	3.91844194269652	Jitter2	Exp	Val	Word	Fem	1	0.543506832815183
417.256610823217	0.5	cue	Exp	Inval	CueName2	Fem	1	0.637941025126565
417.773660132877	3.93637723017127	Jitter1	Exp	Inval	CueName2	Fem	1	0.637941025126565
421.692988053388	0.5	target	Exp	Inval	Face	Fem	1	0.637941025126565
422.209977026621	2.51826087649442	Jitter2	Exp	Inval	Face	Fem	1	0.637941025126565
424.745222891868	0.5	cue	Exp	Val	CueFace2	Fem	1	0.573255821896055
425.262231218295	3.93640426772072	Jitter1	Exp	Val	CueFace2	Fem	1	0.573255821896055
429.181627159589	0.5	target	Exp	Val	Face	Fem	1	0.573255821896055
429.698509405653	6.01844160116889	Jitter2	Exp	Val	Face	Fem	1	0.573255821896055
435.736124329469	0.5	cue	Exp	Val	CueFace2	Fem	1	0.543112084588756
436.253192423112	2.53549404149362	Jitter1	Exp	Val	CueFace2	Fem	1	0.543112084588756
438.771618370963	0.5	target	Exp	Val	Face	Fem	1	0.543112084588756
439.288526231547	4.61844666715206	Jitter2	Exp	Val	Face	Fem	1	0.543112084588756
443.925157500843	0.5	cue	Exp	Val	CueFace2	Fem	1	0.797475375907197
444.442252062823	3.23602073296206	Jitter1	Exp	Val	CueFace2	Fem	1	0.797475375907197
447.661178233805	0.5	target	Exp	Val	Face	Fem	1	0.797475375907197
448.178060195262	4.61829440305701	Jitter2	Exp	Val	Face	Fem	1	0.797475375907197
452.814690610741	0.5	cue	Exp	Inval	CueName2	Mas	1	0.762908580067233
453.331806518156	4.63696055819219	Jitter1	Exp	Inval	CueName2	Mas	1	0.762908580067233
457.951651168933	0.5	target	Exp	Inval	Face	Mas	1	0.762908580067233
458.468607412501	3.21829007704855	Jitter2	Exp	Inval	Face	Mas	1	0.762908580067233
461.704268119143	0.5	cue	Exp	Inval	CueFace2	Mas	1	0.740743196783114
462.221352150709	5.3374084138577	Jitter1	Exp	Inval	CueFace2	Mas	1	0.740743196783114
467.541676533001	0.5	target	Exp	Inval	Word	Mas	1	0.740743196783114
468.0585900857	2.51843619365991	Jitter2	Exp	Inval	Word	Mas	1	0.740743196783114
