onset	duration	section	btype	validity	stim	gender	accuracy	reaction_time
10.063760234425	0.5	cue	Att	Val	CueFace2	Fem	1	0.526948468137562
10.5808126747488	4.63694120499713	Jitter1	Att	Val	CueFace2	Fem	1	0.526948468137562
15.2007014394221	0.5	target	Att	Val	Face	Fem	1	0.526948468137562
15.7175754319178	2.51851019116475	Jitter2	Att	Val	Face	Fem	1	0.526948468137562
18.2528343890317	0.5	cue	Att	Val	CueFace2	Mas	1	0.994527599930734
18.7697960401092	4.62018959299166	Jitter1	Att	Val	CueFace2	Mas	1	0.994527599930734
23.3730239820234	0.5	target	Att	Val	Face	Mas	1	0.994527599930734
23.8899389577509	4.61831204861483	Jitter2	Att	Val	Face	Mas	1	0.994527599930734
28.5266188946371	0.5	cue	Att	Inval	CueFace2	Mas	1	0.695856025900866
29.0436801577398	4.63695543528775	Jitter1	Att	Inval	CueFace2	Mas	1	0.695856025900866
33.6635743299248	0.5	target	Att	Inval	Word	Mas	1	0.695856025900866
34.1804437687279	4.61837323885993	Jitter2	Att	Inval	Word	Mas	1	0.695856025900866
38.8171015063617	0.5	cue	Att	Inval	CueName1	Mas	1	0.625366572254279
39.3341869609576	5.32078715130046	Jitter1	Att	Inval	CueName1	Mas	1	0.625366572254279
44.6378886576622	0.5	target	Att	Inval	Face	Mas	1	0.625366572254279
45.1547672038505	5.31841126219297	Jitter2	Att	Inval	Face	Mas	1	0.625366572254279
50.4919214647416	0.5	cue	Att	Val	CueFace2	Fem	1	0.639792954982113
51.008948859755	2.53544821996184	Jitter1	Att	Val	CueFace2	Fem	1	0.639792954982113
53.5273696847034	0.5	target	Att	Val	Face	Fem	1	0.639792954982113
54.0442866526719	6.01831893607596	Jitter2	Att	Val	Face	Fem	1	0.639792954982113
60.0819479672318	0.5	cue	Att	Val	CueName1	Mas	1	0.836144194952794
60.5990078073064	4.63695145080601	Jitter1	Att	Val	CueName1	Mas	1	0.836144194952794
65.2188994180378	0.5	target	Att	Val	Word	Mas	1	0.836144194952794
65.7357702798708	3.91829793216857	Jitter2	Att	Val	Word	Mas	1	0.836144194952794
69.6719955305507	0.5	cue	Att	Val	CueName1	Mas	1	0.823027852660744
70.1890232101723	3.23589806786913	Jitter1	Att	Val	CueName1	Mas	1	0.823027852660744
73.4078935984198	0.5	target	Att	Val	Word	Mas	1	0.823027852660744
73.9248091433601	6.01827026848514	Jitter2	Att	Val	Word	Mas	1	0.823027852660744
79.9624994877104	0.5	cue	Att	Val	CueFace2	Mas	1	0.583638525606148
80.4795317210228	5.32074104516323	Jitter1	Att	Val	CueFace2	Mas	1	0.583638525606148
85.7832405328736	0.5	target	Att	Val	Face	Mas	1	0.583638525606148
86.3001017181086	5.31844626870407	Jitter2	Att	Val	Face	Mas	1	0.583638525606148
91.6372998082898	0.5	cue	Att	Val	CueName1	Mas	1	0.853054901594078
92.1542893507358	3.93633738536118	Jitter1	Att	Val	CueName1	Mas	1	0.853054901594078
96.0736371936509	0.5	target	Att	Val	Word	Mas	1	0.853054901594078
96.5906062444792	2.51843107075547	Jitter2	Att	Val	Word	Mas	1	0.853054901594078
99.1258404408891	0.5	cue	Att	Val	CueFace2	Mas	1	1.22358573692327
99.64285929773	6.02119345452229	Jitter1	Att	Val	CueFace2	Mas	1	1.22358573692327
105.647033895411	0.5	target	Att	Val	Face	Mas	1	1.22358573692327
106.163966516699	2.51836333457868	Jitter2	Att	Val	Face	Mas	1	1.22358573692327
108.699161437509	0.5	cue	Att	Val	CueName1	Mas	1	0.797939567944923
109.216179155928	5.33736828444307	Jitter1	Att	Val	CueName1	Mas	1	0.797939567944923
114.536529721952	0.5	target	Att	Val	Word	Mas	1	0.797939567944923
115.053472304442	5.31837170198742	Jitter2	Att	Val	Word	Mas	1	0.797939567944923
120.390672956075	0.5	cue	Att	Val	CueName1	Mas	1	0.709812239869279
120.907704620176	6.03785513110233	Jitter1	Att	Val	CueName1	Mas	1	0.709812239869279
126.928528087177	0.5	target	Att	Val	Word	Mas	1	0.709812239869279
127.445426271164	4.61822495924389	Jitter2	Att	Val	Word	Mas	1	0.709812239869279
132.082093116183	0.5	cue	Att	Inval	CueFace2	Fem	1	0.970183843954146
132.599147264142	6.03788985300707	Jitter1	Att	Inval	CueFace2	Fem	1	0.970183843954146
138.61998296919	0.5	target	Att	Inval	Word	Fem	1	0.970183843954146
139.136945189479	6.01837358038756	Jitter2	Att	Inval	Word	Fem	1	0.970183843954146
145.174578043461	0.5	cue	Att	Inval	CueName1	Fem	1	0.751235189114595
145.69163219142	4.62024053742607	Jitter1	Att	Inval	CueName1	Fem	1	0.751235189114595
150.294818580887	0.5	target	Att	Inval	Face	Fem	1	0.751235189114595
150.811730425952	5.31839788572142	Jitter2	Att	Inval	Face	Fem	1	0.751235189114595
156.148843419003	0.5	cue	Att	Val	CueName1	Fem	1	0.949670597263321
156.6659240353	2.53549062622369	Jitter1	Att	Val	CueName1	Fem	1	0.949670597263321
159.184334045227	0.5	target	Att	Val	Word	Fem	1	0.949670597263321
159.701270081785	3.21831682999255	Jitter2	Att	Val	Word	Fem	1	0.949670597263321
162.936961525851	0.5	cue	Att	Inval	CueFace2	Mas	1	1.13550565341029
163.453958752652	5.33739759883792	Jitter1	Att	Inval	CueFace2	Mas	1	1.13550565341029
168.774359124689	0.5	target	Att	Inval	Word	Mas	1	1.13550565341029
169.291254747224	3.91840181328189	Jitter2	Att	Inval	Word	Mas	1	1.13550565341029
173.227465483011	0.5	cue	Att	Inval	CueName1	Mas	1	0.713015762607029
173.744505969891	6.02121622298546	Jitter1	Att	Inval	CueName1	Mas	1	0.713015762607029
179.748681705996	0.5	target	Att	Inval	Face	Mas	1	0.713015762607029
180.265593835667	6.01838610304003	Jitter2	Att	Inval	Face	Mas	1	0.713015762607029
186.30324148915	0.5	cue	Att	Val	CueName1	Fem	1	0.917456352855879
186.820264615077	4.6369153058713	Jitter1	Att	Val	CueName1	Fem	1	0.917456352855879
191.440156795021	0.5	target	Att	Val	Word	Fem	1	0.917456352855879
191.957069778509	2.51828819864932	Jitter2	Att	Val	Word	Fem	1	0.917456352855879
194.492289460024	0.5	cue	Att	Inval	CueName1	Mas	1	1.17284223276693
195.009315147403	3.93641849800952	Jitter1	Att	Inval	CueName1	Mas	1	1.17284223276693
198.928707958034	0.5	target	Att	Inval	Face	Mas	1	1.17284223276693
199.44562236455	3.21837346654502	Jitter2	Att	Inval	Face	Mas	1	1.17284223276693
202.681411713009	0.5	cue	Att	Val	CueName1	Fem	1	0.598702140690875
203.19835685695	5.3373193322459	Jitter1	Att	Val	CueName1	Fem	1	0.598702140690875
208.518731045255	0.5	target	Att	Val	Word	Fem	1	0.598702140690875
209.035649151647	5.3184300461744	Jitter2	Att	Val	Word	Fem	1	0.598702140690875
214.372753891132	0.5	cue	Att	Val	CueName1	Fem	1	1.13459263804543
214.88983706888	6.03793425150798	Jitter1	Att	Val	CueName1	Fem	1	1.13459263804543
220.91068814264	0.5	target	Att	Val	Word	Fem	1	1.13459263804543
221.427602833763	6.01839492582076	Jitter2	Att	Val	Word	Fem	1	1.13459263804543
227.46526101766	0.5	cue	Att	Inval	CueFace2	Mas	1	0.77999488848036
227.982218115045	3.23590745985894	Jitter1	Att	Inval	CueFace2	Mas	1	0.77999488848036
231.201168477519	0.5	target	Att	Inval	Word	Mas	1	0.77999488848036
231.718111060009	3.21838172011303	Jitter2	Att	Inval	Word	Mas	1	0.77999488848036
234.953830110837	0.5	cue	Att	Inval	CueName1	Fem	1	1.58379733563379
235.470843844774	2.53543028979766	Jitter1	Att	Inval	CueName1	Fem	1	1.58379733563379
237.989260400635	0.5	target	Att	Inval	Face	Fem	1	1.58379733563379
238.506165130555	4.61838661533147	Jitter2	Att	Inval	Face	Fem	1	1.58379733563379
243.142885196856	0.5	cue	Att	Val	CueFace2	Mas	1	1.07014650367455
243.659912307265	3.23593563583381	Jitter1	Att	Val	CueFace2	Mas	1	1.07014650367455
246.87882083269	0.5	target	Att	Val	Face	Mas	1	1.07014650367455
247.39570592481	6.01834910428988	Jitter2	Att	Val	Face	Mas	1	1.07014650367455
253.433304341492	0.5	cue	Att	Val	CueName1	Fem	1	0.94309079607774
253.95042394878	3.93651327173575	Jitter1	Att	Val	CueName1	Fem	1	0.94309079607774
257.869817613228	0.5	target	Att	Val	Word	Fem	1	0.94309079607774
258.38669388257	4.61844296727577	Jitter2	Att	Val	Word	Fem	1	0.94309079607774
263.023344220454	0.5	cue	Att	Val	CueName1	Fem	1	1.50942329760255
263.540410037249	3.23596836549768	Jitter1	Att	Val	CueName1	Fem	1	1.50942329760255
266.759312585951	0.5	target	Att	Val	Word	Fem	1	1.50942329760255
267.276247768692	3.91833066183244	Jitter2	Att	Val	Word	Fem	1	1.50942329760255
271.212408129253	0.5	cue	Att	Inval	CueFace2	Fem	1	1.22075618619056
271.729441216383	2.53546415788514	Jitter1	Att	Inval	CueFace2	Fem	1	1.22075618619056
274.247872287138	0.5	target	Att	Inval	Word	Fem	1	1.22075618619056
274.764773032577	3.91842287410873	Jitter2	Att	Inval	Word	Fem	1	1.22075618619056
278.700960146083	0.5	cue	Att	Inval	CueFace2	Mas	1	0.667107995372135
279.218030231965	3.93648054207188	Jitter1	Att	Inval	CueFace2	Mas	1	0.667107995372135
283.137440688155	0.5	target	Att	Inval	Word	Mas	1	0.667107995372135
283.654300734966	5.31832588045654	Jitter2	Att	Inval	Word	Mas	1	0.667107995372135
288.991462964819	0.5	cue	Att	Inval	CueFace2	Fem	1	0.868996240926208
289.508528212404	3.23597092694945	Jitter1	Att	Inval	CueFace2	Fem	1	0.868996240926208
292.727433891769	0.5	target	Att	Inval	Word	Fem	1	0.868996240926208
293.244330937332	4.61837921558072	Jitter2	Att	Inval	Word	Fem	1	0.868996240926208
297.880918661944	0.5	cue	Att	Inval	CueFace2	Fem	1	0.725907550931879
298.398035423175	5.33749664165225	Jitter1	Att	Inval	CueFace2	Fem	1	0.725907550931879
303.718415303596	0.5	target	Att	Inval	Word	Fem	1	0.725907550931879
304.235310926131	3.21834102148387	Jitter2	Att	Inval	Word	Fem	1	0.725907550931879
307.4710123314	0.5	cue	Att	Val	CueFace2	Fem	0	0.867983898144303
307.988143607527	6.02118690858879	Jitter1	Att	Val	CueFace2	Fem	0	0.867983898144303
313.992199239989	0.5	target	Att	Val	Face	Fem	0	0.867983898144303
314.509136699575	4.61839486889949	Jitter2	Att	Val	Face	Fem	0	0.867983898144303
319.145815498037	0.5	cue	Att	Val	CueFace2	Fem	1	0.730381269297141
319.662791094799	3.23590745985894	Jitter1	Att	Val	CueFace2	Fem	1	0.730381269297141
322.881722957896	0.5	target	Att	Val	Face	Fem	1	0.730381269297141
323.398701685323	5.31840756231759	Jitter2	Att	Val	Face	Fem	1	0.730381269297141
328.735865338203	0.5	cue	Att	Inval	CueName1	Mas	1	0.868366977530968
329.25290610969	3.23585708463543	Jitter1	Att	Inval	CueName1	Mas	1	0.868366977530968
332.471722422839	0.5	target	Att	Inval	Face	Mas	1	0.868366977530968
332.988678666406	2.51837244196213	Jitter2	Att	Inval	Face	Mas	1	0.868366977530968
335.523886109871	0.5	cue	Att	Inval	CueName1	Fem	1	0.763594764619484
336.040875652317	3.9364281746075	Jitter1	Att	Inval	CueName1	Fem	1	0.763594764619484
339.960314284479	0.5	target	Att	Inval	Face	Fem	1	0.763594764619484
340.477230114026	6.01832377437313	Jitter2	Att	Inval	Face	Fem	1	0.763594764619484
346.514882036594	0.5	cue	Att	Inval	CueFace2	Fem	1	0.732532604439257
347.031969483429	3.93636954581416	Jitter1	Att	Inval	CueFace2	Fem	1	0.732532604439257
350.951251582408	0.5	target	Att	Inval	Word	Fem	1	0.732532604439257
351.468225756142	5.31842036957642	Jitter2	Att	Inval	Word	Fem	1	0.732532604439257
356.80536123305	0.5	cue	Att	Inval	CueName1	Fem	1	1.88149242720829
357.322416804036	5.32079938935021	Jitter1	Att	Inval	CueName1	Fem	1	1.88149242720829
362.6261606224	0.5	target	Att	Inval	Face	Fem	1	1.88149242720829
363.14304713755	3.21834529057014	Jitter2	Att	Inval	Face	Fem	1	1.88149242720829
366.378730897261	0.5	cue	Att	Val	CueName1	Mas	1	0.933370939244924
366.89579642945	2.53545761195164	Jitter1	Att	Val	CueName1	Mas	1	0.933370939244924
369.414188509212	0.5	target	Att	Val	Word	Mas	1	0.933370939244924
369.931091531498	3.2183871276211	Jitter2	Att	Val	Word	Mas	1	0.933370939244924
373.166795782825	0.5	cue	Att	Val	CueFace2	Fem	1	0.535903589221562
373.683877822152	5.32071969973003	Jitter1	Att	Val	CueFace2	Fem	1	0.535903589221562
378.987515482555	0.5	target	Att	Val	Face	Fem	1	0.535903589221562
379.504429035254	3.21841985728861	Jitter2	Att	Val	Face	Fem	1	0.535903589221562
382.740128448284	0.5	cue	Att	Inval	CueFace2	Mas	1	0.541254462617871
383.257154989482	6.03792998242352	Jitter1	Att	Inval	CueFace2	Mas	1	0.541254462617871
389.278058430707	0.5	target	Att	Inval	Word	Mas	1	0.541254462617871
389.794933561625	6.01843277838998	Jitter2	Att	Inval	Word	Mas	1	0.541254462617871
395.832543077933	0.5	cue	Att	Val	CueFace2	Mas	1	0.847224182838545
396.349626540286	2.53545988879887	Jitter1	Att	Val	CueFace2	Mas	1	0.847224182838545
398.868002966732	0.5	target	Att	Val	Face	Mas	1	0.847224182838545
399.384949249097	3.21845087931797	Jitter2	Att	Val	Face	Mas	1	0.847224182838545
402.620610240345	0.5	cue	Att	Inval	CueName1	Mas	0	2.25100095855123
403.137712202075	2.53551794837949	Jitter1	Att	Inval	CueName1	Mas	0	2.25100095855123
405.656128188724	0.5	target	Att	Inval	Face	Mas	0	2.25100095855123
406.173014703874	4.61820446762795	Jitter2	Att	Inval	Face	Mas	0	2.25100095855123
410.809697202212	0.5	cue	Att	Inval	CueName1	Fem	1	0.696091110281486
411.326722035774	6.02121138468647	Jitter1	Att	Inval	CueName1	Fem	1	0.696091110281486
417.330908586899	0.5	target	Att	Inval	Face	Fem	1	0.696091110281486
417.847819578146	2.51832861267212	Jitter2	Att	Inval	Face	Fem	1	0.696091110281486
420.382968108215	0.5	cue	Att	Val	CueFace2	Fem	1	0.623539972313665
420.900055839656	3.93641992103767	Jitter1	Att	Val	CueFace2	Fem	1	0.623539972313665
424.819388029253	0.5	target	Att	Val	Face	Fem	1	0.623539972313665
425.336380417757	3.91838843680671	Jitter2	Att	Val	Face	Fem	1	0.623539972313665
429.272571800348	0.5	cue	Att	Val	CueFace2	Mas	1	0.516987550205158
429.789522067194	3.9197354759981	Jitter1	Att	Val	CueFace2	Mas	1	0.516987550205158
433.692307276346	0.5	target	Att	Val	Face	Mas	1	0.516987550205158
434.209231928671	3.91837506033698	Jitter2	Att	Val	Face	Mas	1	0.516987550205158
438.145447502755	0.5	cue	Att	Inval	CueName1	Mas	1	0.729026830356815
438.662441883498	4.62019926958783	Jitter1	Att	Inval	CueName1	Mas	1	0.729026830356815
443.265646772343	0.5	target	Att	Inval	Face	Mas	1	0.729026830356815
443.782570286246	3.91837477573063	Jitter2	Att	Inval	Face	Mas	1	0.729026830356815
447.71875142303	0.5	cue	Att	Inval	CueName1	Fem	1	0.827941286965142
448.235786502401	3.23593535122563	Jitter1	Att	Inval	CueName1	Fem	1	0.827941286965142
451.454686774256	0.5	target	Att	Inval	Face	Fem	1	0.827941286965142
451.971600326955	3.91839640577018	Jitter2	Att	Inval	Face	Fem	1	0.827941286965142
455.907797401664	0.5	cue	Att	Inval	CueFace2	Fem	1	0.845805422992271
456.424816827715	4.63691416744769	Jitter1	Att	Inval	CueFace2	Fem	1	0.845805422992271
461.044711569111	0.5	target	Att	Inval	Word	Fem	1	0.845805422992271
461.561599507291	2.51829389076556	Jitter2	Att	Inval	Word	Fem	1	0.845805422992271
464.096836549759	0.5	cue	Att	Inval	CueFace2	Mas	1	1.10218543091469
464.613853414359	2.53545163523086	Jitter1	Att	Inval	CueFace2	Mas	1	1.10218543091469
467.13228818499	0.5	target	Att	Inval	Word	Mas	1	1.10218543091469
467.64921995246	2.51837756486748	Jitter2	Att	Inval	Word	Mas	1	1.10218543091469
