onset	duration	section	btype	validity	stim	gender	accuracy	reaction_time
10.0676360771668	0.5	cue	Att	Val	CueName2	Fem	1	1.08414273285143
10.5846588682361	3.23593620014435	Jitter1	Att	Val	CueName2	Fem	1	1.08414273285143
13.8035722773111	0.5	target	Att	Val	Word	Fem	1	1.08414273285143
14.320428288489	6.0186030732466	Jitter2	Att	Val	Word	Fem	1	1.08414273285143
20.3581640892153	0.5	cue	Att	Inval	CueFace2	Fem	1	0.588127662324041
20.8752235946304	5.33747811725425	Jitter1	Att	Inval	CueFace2	Fem	1	0.588127662324041
26.1956422064695	0.5	target	Att	Inval	Word	Fem	1	0.588127662324041
26.7125263937724	5.31828434150248	Jitter2	Att	Inval	Word	Fem	1	0.588127662324041
32.0496292562675	0.5	cue	Att	Inval	CueName2	Fem	1	0.605919320084467
32.5667397063935	3.23607935762993	Jitter1	Att	Inval	CueName2	Fem	1	0.605919320084467
35.7857086138974	0.5	target	Att	Inval	Face	Fem	1	0.605919320084467
36.3025765785824	5.31835492411938	Jitter2	Att	Inval	Face	Fem	1	0.605919320084467
41.639785315002	0.5	cue	Att	Inval	CueName2	Fem	1	0.652257377235401
42.1568601892131	2.53550817918767	Jitter1	Att	Inval	CueName2	Fem	1	0.652257377235401
44.6752934941896	0.5	target	Att	Inval	Face	Fem	1	0.652257377235401
45.1921526360475	6.01841153251644	Jitter2	Att	Inval	Face	Fem	1	0.652257377235401
51.2298360690265	0.5	cue	Att	Val	CueName2	Fem	1	0.718156211284622
51.7469223275302	2.53553379384721	Jitter1	Att	Val	CueName2	Fem	1	0.718156211284622
54.2653698628737	0.5	target	Att	Val	Word	Fem	1	0.718156211284622
54.782231566197	3.91830716701043	Jitter2	Att	Val	Word	Fem	1	0.718156211284622
58.7183969890821	0.5	cue	Att	Inval	CueFace2	Fem	1	0.621574999864606
59.2355077238162	2.53554603196244	Jitter1	Att	Inval	CueFace2	Fem	1	0.621574999864606
61.7539430210445	0.5	target	Att	Inval	Word	Fem	1	0.621574999864606
62.27083005442	6.0184109633019	Jitter2	Att	Inval	Word	Fem	1	0.621574999864606
68.3085373944141	0.5	cue	Att	Val	CueFace2	Mas	1	0.769547471505575
68.825564169987	6.02126457865506	Jitter1	Att	Val	CueFace2	Mas	1	0.769547471505575
74.8298019730692	0.5	target	Att	Val	Face	Mas	1	0.769547471505575
75.346691567911	3.21846145264135	Jitter2	Att	Val	Face	Mas	1	0.769547471505575
78.5823970938181	0.5	cue	Att	Inval	CueFace2	Mas	1	0.543077453322439
79.0994688373485	6.03789105402302	Jitter1	Att	Inval	CueFace2	Mas	1	0.543077453322439
85.1202881478412	0.5	target	Att	Inval	Word	Mas	1	0.543077453322439
85.637256009697	2.51846005806601	Jitter2	Att	Inval	Word	Mas	1	0.543077453322439
88.172540629831	0.5	cue	Att	Inval	CueFace2	Mas	1	0.58128029467116
88.6895013765034	5.33741322678361	Jitter1	Att	Inval	CueFace2	Mas	1	0.58128029467116
94.0099538566146	0.5	target	Att	Inval	Word	Mas	1	0.58128029467116
94.5268377593093	6.01845763890378	Jitter2	Att	Inval	Word	Mas	1	0.58128029467116
100.564543676267	0.5	cue	Att	Inval	CueName2	Fem	1	0.602292568931261
101.08159492807	4.62036783789245	Jitter1	Att	Inval	CueName2	Fem	1	0.602292568931261
105.684911514159	0.5	target	Att	Inval	Face	Fem	1	0.602292568931261
106.201710888479	2.51826823272768	Jitter2	Att	Inval	Face	Fem	1	0.602292568931261
108.736922364529	0.5	cue	Att	Inval	CueName2	Mas	1	1.10674852352804
109.254020007326	2.53549764871696	Jitter1	Att	Inval	CueName2	Mas	1	1.10674852352804
111.772420013246	0.5	target	Att	Inval	Face	Mas	1	1.10674852352804
112.289324123061	4.61831197687388	Jitter2	Att	Inval	Face	Mas	1	1.10674852352804
116.926089469728	0.5	cue	Att	Val	CueName2	Fem	1	0.984024990799298
117.4430812386	4.63693483033057	Jitter1	Att	Val	CueName2	Fem	1	0.984024990799298
122.063024300059	0.5	target	Att	Val	Word	Fem	1	0.984024990799298
122.579890841706	5.3183332939625	Jitter2	Att	Val	Word	Fem	1	0.984024990799298
127.91710356263	0.5	cue	Att	Val	CueFace2	Mas	1	1.01312608986791
128.434137168778	5.32082944251397	Jitter1	Att	Val	CueFace2	Mas	1	1.01312608986791
133.737933005144	0.5	target	Att	Val	Face	Mas	1	1.01312608986791
134.25476567852	3.91841332554213	Jitter2	Att	Val	Face	Mas	1	1.01312608986791
138.191039536796	0.5	cue	Att	Val	CueFace2	Fem	1	0.883216506769713
138.708068873835	5.32072613005494	Jitter1	Att	Val	CueFace2	Fem	1	0.883216506769713
144.011765666851	0.5	target	Att	Val	Face	Fem	1	0.883216506769713
144.528656115514	3.21847596761472	Jitter2	Att	Val	Face	Fem	1	0.883216506769713
147.764347695663	0.5	cue	Att	Val	CueName2	Fem	1	1.00610425792456
148.281406631863	3.93644647261954	Jitter1	Att	Val	CueName2	Fem	1	1.00610425792456
152.200794168282	0.5	target	Att	Val	Word	Fem	1	1.00610425792456
152.71774694595	2.51844440466266	Jitter2	Att	Val	Word	Fem	1	1.00610425792456
155.252987736555	0.5	cue	Att	Val	CueFace2	Fem	1	1.93654736591725
155.769996012652	6.02130840818245	Jitter1	Att	Val	CueFace2	Fem	1	1.93654736591725
161.774296144737	0.5	target	Att	Val	Face	Fem	1	1.93654736591725
162.291170086177	3.91841958690384	Jitter2	Att	Val	Face	Fem	1	1.93654736591725
166.227407514715	0.5	cue	Att	Val	CueFace2	Mas	1	0.827459085562623
166.74445648966	3.23595156894044	Jitter1	Att	Val	CueFace2	Mas	1	0.827459085562623
169.963359083656	0.5	target	Att	Val	Face	Mas	1	0.827459085562623
170.480234163524	5.31844770610769	Jitter2	Att	Val	Face	Mas	1	0.827459085562623
175.817442046122	0.5	cue	Att	Val	CueName2	Mas	1	1.32432854728177
176.334473375412	4.63697809064342	Jitter1	Att	Val	CueName2	Mas	1	1.32432854728177
180.954420136765	0.5	target	Att	Val	Word	Mas	1	1.32432854728177
181.471298631921	3.21824287421532	Jitter2	Att	Val	Word	Mas	1	1.32432854728177
184.707068479084	0.5	cue	Att	Val	CueName2	Mas	1	0.998141514162853
185.224053701987	5.33743855683588	Jitter1	Att	Val	CueName2	Mas	1	0.998141514162853
190.54450703592	0.5	target	Att	Val	Word	Mas	1	0.998141514162853
191.061335724794	2.51858016235747	Jitter2	Att	Val	Word	Mas	1	0.998141514162853
193.596605829954	0.5	cue	Att	Val	CueName2	Mas	1	0.808009590127767
194.113680704164	6.03798582826312	Jitter1	Att	Val	CueName2	Mas	1	0.808009590127767
200.134591658217	0.5	target	Att	Val	Word	Mas	1	0.808009590127767
200.651440269603	6.01845593125927	Jitter2	Att	Val	Word	Mas	1	0.808009590127767
206.689092395776	0.5	cue	Att	Val	CueName2	Mas	1	1.36190582172821
207.206180646532	2.53555570861135	Jitter1	Att	Val	CueName2	Mas	1	1.36190582172821
209.724648104388	0.5	target	Att	Val	Word	Mas	1	1.36190582172821
210.24151635368	5.318430629668	Jitter2	Att	Val	Word	Mas	1	1.36190582172821
215.57876550434	0.5	cue	Att	Val	CueFace2	Fem	1	0.955780844389665
216.095760119285	3.23592083134918	Jitter1	Att	Val	CueFace2	Fem	1	0.955780844389665
219.31468633569	0.5	target	Att	Val	Face	Fem	1	0.955780844389665
219.831588453253	2.51840142895708	Jitter2	Att	Val	Face	Fem	1	0.955780844389665
222.366794521765	0.5	cue	Att	Inval	CueName2	Mas	1	0.871274952591193
222.883896718278	4.62035616899175	Jitter1	Att	Inval	CueName2	Mas	1	0.871274952591193
227.487150690757	0.5	target	Att	Inval	Face	Mas	1	0.871274952591193
228.004004425075	3.91845174753144	Jitter2	Att	Inval	Face	Mas	1	0.871274952591193
231.940203431624	0.5	cue	Att	Inval	CueName2	Fem	1	0.773401623912832
232.457249275888	5.32078134387575	Jitter1	Att	Inval	CueName2	Fem	1	0.773401623912832
237.7609847755	0.5	target	Att	Inval	Face	Fem	1	0.773401623912832
238.277891731389	3.21840253892515	Jitter2	Att	Inval	Face	Fem	1	0.773401623912832
241.513626287244	0.5	cue	Att	Inval	CueFace2	Mas	1	0.816304755247984
242.030689207947	3.93640861984477	Jitter1	Att	Inval	CueFace2	Mas	1	0.816304755247984
245.950034907089	0.5	target	Att	Inval	Word	Mas	1	0.816304755247984
246.466979431144	3.21846088342681	Jitter2	Att	Inval	Word	Mas	1	0.816304755247984
249.702669588256	0.5	cue	Att	Val	CueFace2	Fem	1	1.60322152724257
250.219713724876	3.93643850361423	Jitter1	Att	Val	CueFace2	Fem	1	1.60322152724257
254.13910809187	0.5	target	Att	Val	Face	Fem	1	1.60322152724257
254.65607140001	4.61848473352075	Jitter2	Att	Val	Face	Fem	1	1.60322152724257
259.292832477567	0.5	cue	Att	Inval	CueFace2	Fem	1	0.729502936151221
259.809792085811	3.23591286234478	Jitter1	Att	Inval	CueFace2	Fem	1	0.729502936151221
263.028745339911	0.5	target	Att	Inval	Word	Fem	1	0.729502936151221
263.545653149621	2.51845265827524	Jitter2	Att	Inval	Word	Fem	1	0.729502936151221
266.080940046613	0.5	cue	Att	Val	CueName2	Mas	1	0.74929680644982
266.597967676008	3.2359501459041	Jitter1	Att	Val	CueName2	Mas	1	0.74929680644982
269.816890192517	0.5	target	Att	Val	Word	Mas	1	0.74929680644982
270.333769826102	3.91844264009796	Jitter2	Att	Val	Word	Mas	1	0.74929680644982
274.269960009825	0.5	cue	Att	Val	CueFace2	Fem	1	1.29582683124227
274.787026345816	4.62035246909636	Jitter1	Att	Val	CueFace2	Fem	1	1.29582683124227
279.390312478921	0.5	target	Att	Val	Face	Fem	1	1.29582683124227
279.907178451355	5.31845909040021	Jitter2	Att	Val	Face	Fem	1	1.29582683124227
285.244401987356	0.5	cue	Att	Val	CueName2	Fem	1	0.847777487161693
285.761365295495	6.0378984538138	Jitter1	Att	Val	CueName2	Fem	1	0.847777487161693
291.78230044117	0.5	target	Att	Val	Word	Fem	1	0.847777487161693
292.299199712661	3.21830776468505	Jitter2	Att	Val	Word	Fem	1	0.847777487161693
295.534935691552	0.5	cue	Att	Inval	CueFace2	Mas	1	1.03912866898008
296.051935144821	3.23596949920193	Jitter1	Att	Inval	CueFace2	Mas	1	1.03912866898008
299.270905190754	0.5	target	Att	Inval	Word	Mas	1	1.03912866898008
299.78779649324	5.31842465291447	Jitter2	Att	Inval	Word	Mas	1	1.03912866898008
305.125051620654	0.5	cue	Att	Inval	CueFace2	Fem	1	0.724473355488954
305.642073842509	3.93641345817014	Jitter1	Att	Inval	CueFace2	Fem	1	0.724473355488954
309.561465078824	0.5	target	Att	Inval	Word	Fem	1	0.724473355488954
310.078339589477	3.21843925326993	Jitter2	Att	Inval	Word	Fem	1	0.724473355488954
313.314144158734	0.5	cue	Att	Inval	CueName2	Fem	1	0.794504972516734
313.831164388338	6.02120708797429	Jitter1	Att	Inval	CueName2	Fem	1	0.794504972516734
319.835351246708	0.5	target	Att	Inval	Face	Fem	1	0.794504972516734
320.352285809508	3.91844890145876	Jitter2	Att	Inval	Face	Fem	1	0.794504972516734
324.28853234548	0.5	cue	Att	Val	CueFace2	Mas	1	1.25785509104117
324.805526960426	2.53545324997413	Jitter1	Att	Val	CueFace2	Mas	1	1.25785509104117
327.323985595454	0.5	target	Att	Val	Face	Mas	1	1.25785509104117
327.840850998673	4.61830087718863	Jitter2	Att	Val	Face	Mas	1	1.25785509104117
332.47753864754	0.5	cue	Att	Inval	CueFace2	Fem	1	0.735293841410567
332.994633728871	4.63697666760709	Jitter1	Att	Inval	CueFace2	Fem	1	0.735293841410567
337.614515315147	0.5	target	Att	Inval	Word	Fem	1	0.735293841410567
338.131420563392	3.91857725936279	Jitter2	Att	Inval	Word	Fem	1	0.735293841410567
342.067573463555	0.5	cue	Att	Inval	CueName2	Mas	1	1.04526935664217
342.584698144047	5.32087924879579	Jitter1	Att	Inval	CueName2	Mas	1	1.04526935664217
347.888452712351	0.5	target	Att	Inval	Face	Mas	1	1.04526935664217
348.405309008135	6.01845223136388	Jitter2	Att	Inval	Face	Mas	1	1.04526935664217
354.442987318183	0.5	cue	Att	Val	CueName2	Mas	1	0.726131477768831
354.960100045168	3.93651193230471	Jitter1	Att	Val	CueName2	Mas	1	0.726131477768831
358.879499250487	0.5	target	Att	Val	Word	Mas	1	0.726131477768831
359.396368353601	4.61850807132123	Jitter2	Att	Val	Word	Mas	1	0.726131477768831
364.033139392415	0.5	cue	Att	Inval	CueName2	Fem	1	0.824088196395678
364.550172144742	3.93635198298671	Jitter1	Att	Inval	CueName2	Fem	1	0.824088196395678
368.469491375402	0.5	target	Att	Inval	Face	Fem	1	0.824088196395678
368.986443299248	4.61845371132222	Jitter2	Att	Inval	Face	Fem	1	0.824088196395678
373.623203238376	0.5	cue	Att	Val	CueFace2	Mas	1	0.825904560348135
374.140229729342	3.93640776602388	Jitter1	Att	Val	CueFace2	Mas	1	0.825904560348135
378.0596110044	0.5	target	Att	Val	Face	Mas	1	0.825904560348135
378.576518244895	6.01855440539475	Jitter2	Att	Val	Face	Mas	1	0.825904560348135
384.614167524996	0.5	cue	Att	Inval	CueName2	Mas	1	0.869967181928587
385.131271998368	6.02134683017175	Jitter1	Att	Inval	CueName2	Mas	1	0.869967181928587
391.135514355167	0.5	target	Att	Inval	Face	Mas	1	0.869967181928587
391.652375489276	3.21844153012898	Jitter2	Att	Inval	Face	Mas	1	0.869967181928587
394.888103214555	0.5	cue	Att	Inval	CueName2	Mas	1	0.86486701864942
395.405148204996	3.93645871073477	Jitter1	Att	Inval	CueName2	Mas	1	0.86486701864942
399.324561925289	0.5	target	Att	Inval	Face	Mas	1	0.86486701864942
399.841467458141	5.31857293333087	Jitter2	Att	Inval	Face	Mas	1	0.86486701864942
405.178681032886	0.5	cue	Att	Inval	CueFace2	Mas	1	0.855132025068997
405.695730861652	2.53553379384721	Jitter1	Att	Inval	CueFace2	Mas	1	0.855132025068997
408.214214826733	0.5	target	Att	Inval	Word	Mas	1	0.855132025068997
408.731050346182	3.91847992365729	Jitter2	Att	Inval	Word	Mas	1	0.855132025068997
412.667228007183	0.5	cue	Att	Val	CueFace2	Fem	1	0.678521510480095
413.184305158252	2.53555343175231	Jitter1	Att	Val	CueFace2	Fem	1	0.678521510480095
415.702781438935	0.5	target	Att	Val	Face	Fem	1	0.678521510480095
416.219647126762	6.01827947471702	Jitter2	Att	Val	Face	Fem	1	0.678521510480095
422.257303806652	0.5	cue	Att	Val	CueFace2	Mas	1	0.723648278851215
422.774380388506	4.6203655610334	Jitter1	Att	Val	CueFace2	Mas	1	0.723648278851215
427.377669367685	0.5	target	Att	Val	Face	Mas	1	0.723648278851215
427.89452139436	2.51823977199547	Jitter2	Att	Val	Face	Mas	1	0.723648278851215
430.429717786222	0.5	cue	Att	Inval	CueFace2	Mas	1	0.81444598480266
430.946856981688	4.63702704310344	Jitter1	Att	Inval	CueFace2	Mas	1	0.81444598480266
435.566744829325	0.5	target	Att	Inval	Word	Mas	1	0.81444598480266
436.083619055372	4.61830600011945	Jitter2	Att	Inval	Word	Mas	1	0.81444598480266
440.720287066333	0.5	cue	Att	Inval	CueName2	Mas	1	0.86092890708278
441.23736450201	3.23592936956902	Jitter1	Att	Inval	CueName2	Mas	1	0.86092890708278
444.456216435902	0.5	target	Att	Inval	Face	Mas	1	0.86092890708278
444.973186005403	2.51840797492514	Jitter2	Att	Inval	Face	Mas	1	0.86092890708278
447.508460379672	0.5	cue	Att	Inval	CueFace2	Fem	1	0.422673185692474
448.025363635666	6.03792862219052	Jitter1	Att	Inval	CueFace2	Fem	1	0.422673185692474
454.046389001863	0.5	target	Att	Inval	Word	Fem	1	0.422673185692474
454.563461883822	4.61810022902318	Jitter2	Att	Inval	Word	Fem	1	0.422673185692474
459.199986452692	0.5	cue	Att	Val	CueName2	Fem	1	0.77563892210037
459.717054496326	5.3373964349521	Jitter1	Att	Val	CueName2	Fem	1	0.77563892210037
465.037382887644	0.5	target	Att	Val	Word	Fem	1	0.77563892210037
465.554328550128	4.61846594943745	Jitter2	Att	Val	Word	Fem	1	0.77563892210037
