onset	duration	section	btype	validity	stim	gender	accuracy	reaction_time
10.0619630571346	0.5	cue	Exp	Val	CueFace2	Mas	1	0.881702802958898
10.5789915421083	3.23594151026191	Jitter1	Exp	Val	CueFace2	Mas	1	0.881702802958898
13.7979045673965	0.5	target	Exp	Val	Face	Mas	1	0.881702802958898
14.314782496338	3.91826173525988	Jitter2	Exp	Val	Face	Mas	1	0.881702802958898
18.2509672300112	0.5	cue	Exp	Val	CueFace2	Mas	1	0.639845209043415
18.767988884465	5.32071337945308	Jitter1	Exp	Val	CueFace2	Mas	1	0.639845209043415
24.0716806094642	0.5	target	Exp	Val	Face	Mas	1	0.639845209043415
24.5885733378636	4.61823714538696	Jitter2	Exp	Val	Face	Mas	1	0.639845209043415
29.2252417861564	0.5	cue	Exp	Val	CueName1	Mas	1	0.781155849115748
29.7423027160985	4.63690438582125	Jitter1	Exp	Val	CueName1	Mas	1	0.781155849115748
34.3621461719777	0.5	target	Exp	Val	Word	Mas	1	0.781155849115748
34.8790451616842	3.91834227846994	Jitter2	Exp	Val	Word	Mas	1	0.781155849115748
38.8152039963061	0.5	cue	Exp	Val	CueFace2	Mas	1	0.614771510583523
39.3322515498148	6.02122555457026	Jitter1	Exp	Val	CueFace2	Mas	1	0.614771510583523
45.3364295508763	0.5	target	Exp	Val	Face	Mas	1	0.614771510583523
45.8533228484848	5.31838730297386	Jitter2	Exp	Val	Face	Mas	1	0.614771510583523
51.1904787112617	0.5	cue	Exp	Val	CueName1	Mas	1	0.648576889732794
51.7075439102773	3.23596484787049	Jitter1	Exp	Val	CueName1	Mas	1	0.648576889732794
54.9264435591322	0.5	target	Exp	Val	Word	Mas	1	0.648576889732794
55.443347956334	4.61838741682004	Jitter2	Exp	Val	Word	Mas	1	0.648576889732794
60.0799438303584	0.5	cue	Exp	Val	CueName1	Fem	1	0.647053683896957
60.5969762998029	3.23595630972341	Jitter1	Exp	Val	CueName1	Fem	1	0.647053683896957
63.8159001400818	0.5	target	Exp	Val	Word	Fem	1	0.647053683896957
64.3328036834682	3.9183752926474	Jitter2	Exp	Val	Word	Fem	1	0.647053683896957
68.2689838634651	0.5	cue	Exp	Val	CueFace2	Mas	1	0.606354318395461
68.7860043795008	2.53543815790181	Jitter1	Exp	Val	CueFace2	Mas	1	0.606354318395461
71.3044220213669	0.5	target	Exp	Val	Face	Mas	1	0.606354318395461
71.8213298338305	6.01836812059628	Jitter2	Exp	Val	Face	Mas	1	0.606354318395461
77.8423109127216	0.5	cue	Exp	Inval	CueFace2	Fem	1	1.07545077159011
78.359350781895	4.63688987096612	Jitter1	Exp	Inval	CueFace2	Fem	1	1.07545077159011
82.9792007836877	0.5	target	Exp	Inval	Word	Fem	1	1.07545077159011
83.4960935120871	6.01826907806753	Jitter2	Exp	Inval	Word	Fem	1	1.07545077159011
89.5170697526955	0.5	cue	Exp	Val	CueFace2	Mas	1	0.669025757317286
90.0341099064717	3.93637314216903	Jitter1	Exp	Val	CueFace2	Mas	1	0.669025757317286
93.9534428948646	0.5	target	Exp	Val	Face	Mas	1	0.669025757317286
94.4703714834905	2.51837466651341	Jitter2	Exp	Val	Face	Mas	1	0.669025757317286
97.0055626042704	0.5	cue	Exp	Inval	CueName1	Fem	1	0.856818936023046
97.522593366084	3.23594748696632	Jitter1	Exp	Inval	CueName1	Fem	1	0.856818936023046
100.741510091237	0.5	target	Exp	Inval	Face	Fem	1	0.856818936023046
101.258412780811	4.61823714539059	Jitter2	Exp	Inval	Face	Fem	1	0.856818936023046
105.895087490415	0.5	cue	Exp	Val	CueName1	Fem	1	0.721837910634349
106.412133905502	5.33732207208232	Jitter1	Exp	Val	CueName1	Fem	1	0.721837910634349
111.732409562497	0.5	target	Exp	Val	Word	Fem	1	0.721837910634349
112.249368888461	6.01826139373588	Jitter2	Exp	Val	Word	Fem	1	0.721837910634349
118.270343706045	0.5	cue	Exp	Inval	CueFace2	Mas	1	0.692326651376789
118.787374183252	2.53543417343099	Jitter1	Exp	Inval	CueFace2	Mas	1	0.692326651376789
121.305777879476	0.5	target	Exp	Inval	Word	Mas	1	0.692326651376789
121.822674023133	2.51837438191069	Jitter2	Exp	Inval	Word	Mas	1	0.692326651376789
124.357915234392	0.5	cue	Exp	Val	CueFace2	Fem	1	0.699332772092021
124.874914405053	5.32070597972051	Jitter1	Exp	Val	CueFace2	Fem	1	0.699332772092021
130.178621214112	0.5	target	Exp	Val	Face	Fem	1	0.699332772092021
130.695509104225	6.01839316583937	Jitter2	Exp	Val	Face	Fem	1	0.699332772092021
136.716471683794	0.5	cue	Exp	Val	CueFace2	Fem	1	0.684916106991295
137.233495615088	3.93640814858372	Jitter1	Exp	Val	CueFace2	Fem	1	0.684916106991295
141.152879832378	0.5	target	Exp	Val	Face	Fem	1	0.684916106991295
141.669774268408	3.2183480844069	Jitter2	Exp	Val	Face	Fem	1	0.684916106991295
144.90550317875	0.5	cue	Exp	Val	CueName1	Fem	1	0.570284337449266
145.422467627606	6.0378342471995	Jitter1	Exp	Val	CueName1	Fem	1	0.570284337449266
151.44333742595	0.5	target	Exp	Val	Word	Fem	1	0.570284337449266
151.960242392364	2.5183430753641	Jitter2	Exp	Val	Word	Fem	1	0.570284337449266
154.495453435495	0.5	cue	Exp	Val	CueName1	Fem	1	0.562638140141644
155.012573563268	2.53544641144254	Jitter1	Exp	Val	CueName1	Fem	1	0.562638140141644
157.530899846937	0.5	target	Exp	Val	Word	Fem	1	0.562638140141644
158.047798267438	4.61836265618331	Jitter2	Exp	Val	Word	Fem	1	0.562638140141644
162.684454477716	0.5	cue	Exp	Inval	CueFace2	Mas	1	0.63109559824079
163.201507154114	6.03788946056739	Jitter1	Exp	Inval	CueFace2	Mas	1	0.63109559824079
169.222343938283	0.5	target	Exp	Inval	Word	Mas	1	0.63109559824079
169.739238943523	3.91835252424789	Jitter2	Exp	Inval	Word	Mas	1	0.63109559824079
173.675473198462	0.5	cue	Exp	Val	CueFace2	Fem	1	0.621154346405092
174.192421709438	5.32066784265407	Jitter1	Exp	Val	CueFace2	Fem	1	0.621154346405092
179.496141041116	0.5	target	Exp	Val	Face	Fem	1	0.621154346405092
180.013033200306	4.61834842593453	Jitter2	Exp	Val	Face	Fem	1	0.621154346405092
184.649706771492	0.5	cue	Exp	Val	CueName1	Mas	1	0.715469305068837
185.166842267936	3.23595175603987	Jitter1	Exp	Val	CueName1	Mas	1	0.715469305068837
188.385658527532	0.5	target	Exp	Val	Word	Mas	1	0.715469305068837
188.902530195162	3.2183654453147	Jitter2	Exp	Val	Word	Mas	1	0.715469305068837
192.138201046091	0.5	cue	Exp	Val	CueName1	Fem	1	0.7023498694507
192.655260268402	3.93644315499478	Jitter1	Exp	Val	CueName1	Fem	1	0.7023498694507
196.574644201086	0.5	target	Exp	Val	Word	Fem	1	0.7023498694507
197.091543190796	5.31835656563635	Jitter2	Exp	Val	Word	Fem	1	0.7023498694507
202.428694215287	0.5	cue	Exp	Val	CueName1	Mas	1	0.95829000222875
202.945737784325	6.03787636873676	Jitter1	Exp	Val	CueName1	Mas	1	0.95829000222875
208.966570584023	0.5	target	Exp	Val	Word	Mas	1	0.95829000222875
209.483471565967	5.31834688907111	Jitter2	Exp	Val	Word	Mas	1	0.95829000222875
214.82059669141	0.5	cue	Exp	Inval	CueFace2	Fem	1	0.850605440165964
215.337657905955	5.33742196843014	Jitter1	Exp	Inval	CueFace2	Fem	1	0.850605440165964
220.65801865984	0.5	target	Exp	Inval	Word	Fem	1	0.850605440165964
221.174912526658	5.31834745828019	Jitter2	Exp	Inval	Word	Fem	1	0.850605440165964
226.512022852639	0.5	cue	Exp	Inval	CueName1	Fem	1	0.655639931446785
227.029096589806	5.32078538450878	Jitter1	Exp	Inval	CueName1	Fem	1	0.655639931446785
232.332808237148	0.5	target	Exp	Inval	Face	Fem	1	0.655639931446785
232.849675066496	3.91837244659473	Jitter2	Exp	Inval	Face	Fem	1	0.655639931446785
236.785860938591	0.5	cue	Exp	Val	CueFace2	Mas	1	0.943069612669206
237.302885439094	2.53544043474176	Jitter1	Exp	Val	CueFace2	Mas	1	0.943069612669206
239.821301373333	0.5	target	Exp	Val	Face	Mas	1	0.943069612669206
240.338204632117	6.0182636705722	Jitter2	Exp	Val	Face	Mas	1	0.943069612669206
246.359180588119	0.5	cue	Exp	Val	CueName1	Mas	1	0.635160611127503
246.876207365462	6.03785502336177	Jitter1	Exp	Val	CueName1	Mas	1	0.635160611127503
252.897035611481	0.5	target	Exp	Val	Word	Mas	1	0.635160611127503
253.413939439473	3.21834979204141	Jitter2	Exp	Val	Word	Mas	1	0.635160611127503
256.64964045853	0.5	cue	Exp	Val	CueName1	Fem	1	0.677028564663487
257.166668089689	5.3373838313637	Jitter1	Exp	Val	CueName1	Fem	1	0.677028564663487
262.487024289894	0.5	target	Exp	Val	Word	Fem	1	0.677028564663487
263.003925271838	3.21833613100171	Jitter2	Exp	Val	Word	Fem	1	0.677028564663487
266.239578761863	0.5	cue	Exp	Inval	CueFace2	Fem	1	0.615831094917667
266.75665192982	3.93651288321416	Jitter1	Exp	Inval	CueFace2	Fem	1	0.615831094917667
270.676091645077	0.5	target	Exp	Inval	Word	Fem	1	0.615831094917667
271.19293712905	4.61839026286907	Jitter2	Exp	Inval	Word	Fem	1	0.615831094917667
275.829518203616	0.5	cue	Exp	Val	CueName1	Mas	1	1.00875501829796
276.346610440105	5.33747917403161	Jitter1	Exp	Val	CueName1	Mas	1	1.00875501829796
281.666997377648	0.5	target	Exp	Val	Word	Mas	1	1.00875501829796
282.183892667494	5.31824215443703	Jitter2	Exp	Val	Word	Mas	1	1.00875501829796
287.521051660926	0.5	cue	Exp	Inval	CueName1	Fem	1	0.697654171937756
288.038068477093	4.63689044017519	Jitter1	Exp	Inval	CueName1	Fem	1	0.697654171937756
292.657942101101	0.5	target	Exp	Inval	Face	Fem	1	0.697654171937756
293.174849059749	6.01835815942468	Jitter2	Exp	Inval	Face	Fem	1	0.697654171937756
299.195846645729	0.5	cue	Exp	Val	CueFace2	Mas	1	0.662420360411488
299.712807394717	6.02117631790679	Jitter1	Exp	Val	CueFace2	Mas	1	0.662420360411488
305.717022963636	0.5	target	Exp	Val	Face	Mas	1	0.662420360411488
306.233906015466	3.21839732107037	Jitter2	Exp	Val	Face	Mas	1	0.662420360411488
309.469605611499	0.5	cue	Exp	Val	CueName1	Fem	1	0.59676882277563
309.986634665682	4.636936830786	Jitter1	Exp	Val	CueName1	Fem	1	0.59676882277563
314.606542442285	0.5	target	Exp	Val	Word	Fem	1	0.59676882277563
315.123405856371	2.51835417495749	Jitter2	Exp	Val	Word	Fem	1	0.59676882277563
317.658586731373	0.5	cue	Exp	Inval	CueName1	Mas	1	0.663312881621096
318.175647945918	6.02125913795317	Jitter1	Exp	Inval	CueName1	Mas	1	0.663312881621096
324.179845869327	0.5	target	Exp	Inval	Face	Mas	1	0.663312881621096
324.696710421835	2.51835075969575	Jitter2	Exp	Inval	Face	Mas	1	0.663312881621096
327.231894712095	0.5	cue	Exp	Val	CueName1	Fem	1	0.530216225786717
327.74894909612	4.63693170789702	Jitter1	Exp	Val	CueName1	Fem	1	0.530216225786717
332.368826419992	0.5	target	Exp	Val	Word	Fem	1	0.530216225786717
332.885723132862	6.01837011283351	Jitter2	Exp	Val	Word	Fem	1	0.530216225786717
338.906720149633	0.5	cue	Exp	Val	CueFace2	Fem	1	0.886899974444532
339.423715620429	6.02119453262276	Jitter1	Exp	Val	CueFace2	Fem	1	0.886899974444532
345.427914682256	0.5	target	Exp	Val	Face	Fem	1	0.886899974444532
345.944782650022	2.51827761621826	Jitter2	Exp	Val	Face	Fem	1	0.886899974444532
348.47999710841	0.5	cue	Exp	Val	CueName1	Mas	1	0.695346594788134
348.997025308781	2.53543787329545	Jitter1	Exp	Val	CueName1	Mas	1	0.695346594788134
351.515434981706	0.5	target	Exp	Val	Word	Mas	1	0.695346594788134
352.032337386674	2.51834848285944	Jitter2	Exp	Val	Word	Mas	1	0.695346594788134
354.567553268087	0.5	cue	Exp	Val	CueFace2	Fem	1	0.551382013305556
355.084584314507	3.91973826588219	Jitter1	Exp	Val	CueFace2	Fem	1	0.551382013305556
358.987291533969	0.5	target	Exp	Val	Face	Fem	1	0.551382013305556
359.504189669864	2.51833510642246	Jitter2	Exp	Val	Face	Fem	1	0.551382013305556
362.039402989831	0.5	cue	Exp	Inval	CueName1	Mas	1	0.719688004639465
362.55642322126	2.53548824837708	Jitter1	Exp	Inval	CueName1	Mas	1	0.719688004639465
365.074891238208	0.5	target	Exp	Inval	Face	Mas	1	0.719688004639465
365.591741275861	5.31838018785129	Jitter2	Exp	Inval	Face	Mas	1	0.719688004639465
370.92884875579	0.5	cue	Exp	Val	CueName1	Mas	1	0.685120737969555
371.445919077698	3.936466207997	Jitter1	Exp	Val	CueName1	Mas	1	0.685120737969555
375.365314963787	0.5	target	Exp	Val	Word	Mas	1	0.685120737969555
375.882219076386	6.01835132890847	Jitter2	Exp	Val	Word	Mas	1	0.685120737969555
381.903228900381	0.5	cue	Exp	Val	CueFace2	Mas	1	0.66717098668596
382.420216402239	3.23587348967339	Jitter1	Exp	Val	CueFace2	Mas	1	0.66717098668596
385.639102390054	0.5	target	Exp	Val	Face	Mas	1	0.66717098668596
386.156002518183	3.91838468460992	Jitter2	Exp	Val	Face	Mas	1	0.66717098668596
390.092193797773	0.5	cue	Exp	Inval	CueName1	Mas	1	0.594221323630336
390.609182438049	3.91973541982952	Jitter1	Exp	Inval	CueName1	Mas	1	0.594221323630336
394.511929217602	0.5	target	Exp	Inval	Face	Mas	1	0.594221323630336
395.028823369026	3.21837853714169	Jitter2	Exp	Inval	Face	Mas	1	0.594221323630336
398.264493935352	0.5	cue	Exp	Val	CueName1	Mas	1	0.541187747639924
398.781520428089	3.93638680320873	Jitter1	Exp	Val	CueName1	Mas	1	0.541187747639924
402.700880738561	0.5	target	Exp	Val	Word	Mas	1	0.541187747639924
403.217838356893	3.91833516334373	Jitter2	Exp	Val	Word	Mas	1	0.541187747639924
407.154024798198	0.5	cue	Exp	Val	CueFace2	Mas	1	0.615635286689212
407.671052429359	4.6202532870484	Jitter1	Exp	Val	CueFace2	Mas	1	0.615635286689212
412.274278085246	0.5	target	Exp	Val	Face	Mas	1	0.615635286689212
412.791141499332	3.21835121506228	Jitter2	Exp	Val	Face	Mas	1	0.615635286689212
416.026792712517	0.5	cue	Exp	Val	CueFace2	Fem	1	0.639002778312715
416.543866449683	3.23599871586339	Jitter1	Exp	Val	CueFace2	Fem	1	0.639002778312715
419.76279142838	0.5	target	Exp	Val	Face	Fem	1	0.639002778312715
420.279680172309	3.91824038988852	Jitter2	Exp	Val	Face	Fem	1	0.639002778312715
424.215861490724	0.5	cue	Exp	Val	CueFace2	Fem	1	0.646379454708949
424.732893675562	2.53543445803734	Jitter1	Exp	Val	CueFace2	Fem	1	0.646379454708949
427.251295948761	0.5	target	Exp	Val	Face	Fem	1	0.646379454708949
427.768197215308	5.31824016220344	Jitter2	Exp	Val	Face	Fem	1	0.646379454708949
433.105401745539	0.5	cue	Exp	Val	CueName1	Fem	1	0.724795240948879
433.622376440169	2.53539176728736	Jitter1	Exp	Val	CueName1	Fem	1	0.724795240948879
436.140793512826	0.5	target	Exp	Val	Word	Fem	1	0.724795240948879
436.657694210164	4.61835297961807	Jitter2	Exp	Val	Word	Fem	1	0.724795240948879
441.29437176582	0.5	cue	Exp	Inval	CueFace2	Mas	1	0.723220806219615
441.811392281852	3.23587946637417	Jitter1	Exp	Inval	CueFace2	Mas	1	0.723220806219615
445.030251232194	0.5	target	Exp	Inval	Word	Mas	1	0.723220806219615
445.547195474097	3.21835206887772	Jitter2	Exp	Inval	Word	Mas	1	0.723220806219615
448.782840141368	0.5	cue	Exp	Val	CueFace2	Fem	1	0.666174584661348
449.299910747879	4.62027349399796	Jitter1	Exp	Val	CueFace2	Fem	1	0.666174584661348
453.903113635366	0.5	target	Exp	Val	Face	Fem	1	0.666174584661348
454.42001461731	5.31823162405271	Jitter2	Exp	Val	Face	Fem	1	0.666174584661348
459.757126081709	0.5	cue	Exp	Val	CueFace2	Fem	1	0.516943388083746
460.274173066009	4.62027320939524	Jitter1	Exp	Val	CueFace2	Fem	1	0.516943388083746
464.877399291105	0.5	target	Exp	Val	Face	Fem	1	0.516943388083746
465.394295434762	4.61835611026982	Jitter2	Exp	Val	Face	Fem	1	0.516943388083746
