onset	duration	section	btype	validity	stim	gender	accuracy	reaction_time
10.060569674095	0.5	cue	Exp	Val	CueFace2	Mas	1	1.02588040890987
10.5775918475028	6.02122524243532	Jitter1	Exp	Val	CueFace2	Mas	1	1.02588040890987
16.5817949165303	0.5	target	Exp	Val	Face	Mas	1	1.02588040890987
17.0986949937433	3.91831451467624	Jitter2	Exp	Val	Face	Mas	1	1.02588040890987
21.0348984509728	0.5	cue	Exp	Val	CueName1	Fem	1	0.656288679803765
21.5519246088734	3.93646999123121	Jitter1	Exp	Val	CueName1	Fem	1	0.656288679803765
25.471368442204	0.5	target	Exp	Val	Word	Fem	1	0.656288679803765
25.9882346512422	3.21835239580287	Jitter2	Exp	Val	Word	Fem	1	0.656288679803765
29.2239514597895	0.5	cue	Exp	Inval	CueFace2	Mas	1	0.626140596188634
29.7409551337751	5.33740885120642	Jitter1	Exp	Inval	CueFace2	Mas	1	0.626140596188634
35.061360310996	0.5	target	Exp	Inval	Word	Mas	1	0.626140596188634
35.578265511127	3.21828522866599	Jitter2	Exp	Inval	Word	Mas	1	0.626140596188634
38.8139939885423	0.5	cue	Exp	Val	CueName1	Fem	1	0.817569784805528
39.331021854081	3.23589938362784	Jitter1	Exp	Val	CueName1	Fem	1	0.817569784805528
42.5498933721701	0.5	target	Exp	Val	Word	Fem	1	0.817569784805528
43.0668284559852	2.5183564087547	Jitter2	Exp	Val	Word	Fem	1	0.817569784805528
45.6020549159657	0.5	cue	Exp	Inval	CueFace2	Mas	1	0.697963327313119
46.1190605821976	2.53541131191378	Jitter1	Exp	Inval	CueFace2	Mas	1	0.697963327313119
48.6374662278795	0.5	target	Exp	Inval	Word	Mas	1	0.697963327313119
49.1544152574133	5.31839073230185	Jitter2	Exp	Inval	Word	Mas	1	0.697963327313119
54.4915501748492	0.5	cue	Exp	Inval	CueName1	Mas	1	0.774918652341512
55.0086213005779	5.32083649839478	Jitter1	Exp	Inval	CueName1	Mas	1	0.774918652341512
60.312386673244	0.5	target	Exp	Inval	Face	Mas	1	0.774918652341512
60.8292389365633	3.21839992509013	Jitter2	Exp	Inval	Face	Mas	1	0.774918652341512
64.0649053697562	0.5	cue	Exp	Val	CueFace2	Mas	1	0.838327845645836
64.5819790569458	3.23599387299146	Jitter1	Exp	Val	CueFace2	Mas	1	0.838327845645836
67.8008992427476	0.5	target	Exp	Val	Face	Mas	1	0.838327845645836
68.3178001737815	4.6183529080954	Jitter2	Exp	Val	Face	Mas	1	0.838327845645836
72.9544942641824	0.5	cue	Exp	Val	CueFace2	Fem	1	0.74071236441705
73.4715386369007	3.23595516650494	Jitter1	Exp	Val	CueFace2	Fem	1	0.74071236441705
76.6904494306873	0.5	target	Exp	Val	Face	Fem	1	0.74071236441705
77.2073347083624	6.01837561969478	Jitter2	Exp	Val	Face	Fem	1	0.74071236441705
83.2283477766396	0.5	cue	Exp	Val	CueName1	Mas	1	0.598362431030182
83.7454331326953	3.93636497142688	Jitter1	Exp	Val	CueName1	Mas	1	0.598362431030182
87.6647127480664	0.5	target	Exp	Val	Word	Mas	1	0.598362431030182
88.1816748695019	6.01836992756398	Jitter2	Exp	Val	Word	Mas	1	0.598362431030182
94.2026771227302	0.5	cue	Exp	Val	CueName1	Fem	1	0.646863935031433
94.7196457901155	5.33737213696622	Jitter1	Exp	Val	CueName1	Fem	1	0.646863935031433
100.040049259696	0.5	target	Exp	Val	Word	Fem	1	0.646863935031433
100.556984343511	4.61821088944453	Jitter2	Exp	Val	Word	Fem	1	0.646863935031433
105.193655665393	0.5	cue	Exp	Val	CueName1	Mas	1	0.82812811732947
105.710754967167	4.63703661434374	Jitter1	Exp	Val	CueName1	Mas	1	0.82812811732947
110.330692279736	0.5	target	Exp	Val	Word	Mas	1	0.82812811732947
110.847505836569	3.91820921026374	Jitter2	Exp	Val	Word	Mas	1	0.82812811732947
114.783743731186	0.5	cue	Exp	Val	CueFace2	Mas	1	0.859589090805457
115.300739151582	2.53542269617355	Jitter1	Exp	Val	CueFace2	Mas	1	0.859589090805457
117.81916642736	0.5	target	Exp	Val	Face	Mas	1	0.859589090805457
118.336071058278	3.91835692104723	Jitter2	Exp	Val	Face	Mas	1	0.859589090805457
122.272302691552	0.5	cue	Exp	Val	CueFace2	Fem	1	0.621430927563779
122.78936015617	4.63694952475089	Jitter1	Exp	Val	CueFace2	Fem	1	0.621430927563779
127.409252216303	0.5	target	Exp	Val	Face	Fem	1	0.621430927563779
127.926101064344	3.91835549801363	Jitter2	Exp	Val	Face	Fem	1	0.621430927563779
131.86227776856	0.5	cue	Exp	Inval	CueFace2	Fem	1	0.775400491173059
132.379333525538	4.636952940029	Jitter1	Exp	Inval	CueFace2	Fem	1	0.775400491173059
136.999230708589	0.5	target	Exp	Inval	Word	Fem	1	0.775400491173059
137.516132778048	2.51826874994731	Jitter2	Exp	Inval	Word	Fem	1	0.775400491173059
140.051328785132	0.5	cue	Exp	Val	CueName1	Fem	1	0.743763630873218
140.568360635163	2.53547990208426	Jitter1	Exp	Val	CueName1	Fem	1	0.743763630873218
143.086808687216	0.5	target	Exp	Val	Word	Fem	1	0.743763630873218
143.603718725657	4.61836827684783	Jitter2	Exp	Val	Word	Fem	1	0.743763630873218
148.240346787348	0.5	cue	Exp	Val	CueName1	Fem	1	0.608644126021318
148.757415636226	5.33750106371554	Jitter1	Exp	Val	CueName1	Fem	1	0.608644126021318
154.077847851064	0.5	target	Exp	Val	Word	Fem	1	0.608644126021318
154.594729998067	6.01827287674314	Jitter2	Exp	Val	Word	Fem	1	0.608644126021318
160.615730259053	0.5	cue	Exp	Val	CueName1	Mas	1	0.993220957399899
161.13274844797	5.3374145433354	Jitter1	Exp	Val	CueName1	Mas	1	0.993220957399899
166.453144802388	0.5	target	Exp	Val	Word	Mas	1	0.993220957399899
166.970039187472	4.61836144628978	Jitter2	Exp	Val	Word	Mas	1	0.993220957399899
171.606663549277	0.5	cue	Exp	Inval	CueName1	Fem	1	0.547774761264009
172.123730405909	3.91985921654123	Jitter1	Exp	Inval	CueName1	Fem	1	0.547774761264009
176.026522765818	0.5	target	Exp	Inval	Face	Fem	1	0.547774761264009
176.543393243954	5.31836198704332	Jitter2	Exp	Inval	Face	Fem	1	0.547774761264009
181.880576259889	0.5	cue	Exp	Val	CueFace2	Mas	1	0.840877350812661
182.397606117675	5.32074627813017	Jitter1	Exp	Val	CueFace2	Mas	1	0.840877350812661
187.70132253802	0.5	target	Exp	Val	Face	Mas	1	0.840877350812661
188.218212369398	5.31838162489294	Jitter2	Exp	Val	Face	Mas	1	0.840877350812661
193.555399654431	0.5	cue	Exp	Val	CueName1	Mas	1	0.642756493796696
194.072431504463	3.23594321303062	Jitter1	Exp	Val	CueName1	Mas	1	0.642756493796696
197.291342867462	0.5	target	Exp	Val	Word	Mas	1	0.642756493796696
197.80824579074	3.91835521340909	Jitter2	Exp	Val	Word	Mas	1	0.642756493796696
201.744454940101	0.5	cue	Exp	Val	CueFace2	Fem	0	1.13229791585582
202.261479105755	6.02123064995794	Jitter1	Exp	Val	CueFace2	Fem	0	1.13229791585582
208.265685590059	0.5	target	Exp	Val	Face	Fem	0	1.13229791585582
208.782568590883	4.61836913066509	Jitter2	Exp	Val	Face	Fem	0	1.13229791585582
213.419272927118	0.5	cue	Exp	Inval	CueName1	Fem	0	0.842704524646251
213.936283147053	3.23594719752327	Jitter1	Exp	Inval	CueName1	Fem	0	0.842704524646251
217.155220124641	0.5	target	Exp	Inval	Face	Fem	0	0.842704524646251
217.672119348035	2.51842528353154	Jitter2	Exp	Inval	Face	Fem	0	0.842704524646251
220.207348938689	0.5	cue	Exp	Inval	CueFace2	Fem	1	0.562133729201378
220.724375381194	3.93635927929608	Jitter1	Exp	Inval	CueFace2	Fem	1	0.562133729201378
224.643708217985	0.5	target	Exp	Inval	Word	Fem	1	0.562133729201378
225.160684569744	6.01830930637698	Jitter2	Exp	Inval	Word	Fem	1	0.562133729201378
231.181686538368	0.5	cue	Exp	Val	CueName1	Mas	1	0.782145665600183
231.698718388399	6.03789834595227	Jitter1	Exp	Val	CueName1	Mas	1	0.782145665600183
237.71958488432	0.5	target	Exp	Val	Word	Mas	1	0.782145665600183
238.236482969289	2.51835811639467	Jitter2	Exp	Val	Word	Mas	1	0.782145665600183
240.771709713878	0.5	cue	Exp	Val	CueFace2	Mas	1	0.568678540641486
241.288736440991	6.02123776512053	Jitter1	Exp	Val	CueFace2	Mas	1	0.568678540641486
247.292947478998	0.5	target	Exp	Val	Face	Mas	1	0.568678540641486
247.809838164198	3.21839081768303	Jitter2	Exp	Val	Face	Mas	1	0.568678540641486
251.045505735818	0.5	cue	Exp	Val	CueFace2	Mas	1	0.788303412175082
251.562583976711	3.919809979614	Jitter1	Exp	Val	CueFace2	Mas	1	0.788303412175082
255.465315715432	0.5	target	Exp	Val	Face	Mas	1	0.788303412175082
255.982212946579	2.51836210088732	Jitter2	Exp	Val	Face	Mas	1	0.788303412175082
258.517411515124	0.5	cue	Exp	Val	CueFace2	Fem	1	0.724333828644376
259.034433119319	3.91978692648445	Jitter1	Exp	Val	CueFace2	Fem	1	0.724333828644376
262.937198441608	0.5	target	Exp	Val	Face	Fem	1	0.724333828644376
263.454097949611	3.21836036478453	Jitter2	Exp	Val	Face	Fem	1	0.724333828644376
266.68985460307	0.5	cue	Exp	Val	CueFace2	Fem	1	0.71220816803725
267.206846608187	2.53544859536669	Jitter1	Exp	Val	CueFace2	Fem	1	0.71220816803725
269.725303198436	0.5	target	Exp	Val	Face	Fem	1	0.71220816803725
270.242232874729	5.31831018865705	Jitter2	Exp	Val	Face	Fem	1	0.71220816803725
275.579361246213	0.5	cue	Exp	Val	CueFace2	Fem	1	0.718614376100959
276.096370327721	2.53538512811429	Jitter1	Exp	Val	CueFace2	Fem	1	0.718614376100959
278.614746374327	0.5	target	Exp	Val	Face	Fem	1	0.718614376100959
279.131716180136	2.51835527032927	Jitter2	Exp	Val	Face	Fem	1	0.718614376100959
281.666938655628	0.5	cue	Exp	Val	CueName1	Fem	1	0.704507854145049
282.183911307502	6.03790375347489	Jitter1	Exp	Val	CueName1	Fem	1	0.704507854145049
288.204842409103	0.5	target	Exp	Val	Word	Fem	1	0.704507854145049
288.721746186202	5.31825269814181	Jitter2	Exp	Val	Word	Fem	1	0.704507854145049
294.05892977135	0.5	cue	Exp	Val	CueName1	Mas	1	0.658356346140863
294.575967313511	3.23594492067059	Jitter1	Exp	Val	CueName1	Mas	1	0.658356346140863
297.794874692021	0.5	target	Exp	Val	Word	Mas	1	0.658356346140863
298.311778469119	2.51840991478093	Jitter2	Exp	Val	Word	Mas	1	0.658356346140863
300.846961953517	0.5	cue	Exp	Val	CueName1	Mas	1	0.666705847497724
301.364017710495	2.53549498622851	Jitter1	Exp	Val	CueName1	Mas	1	0.666705847497724
303.882456939746	0.5	target	Exp	Val	Word	Mas	1	0.666705847497724
304.399363278304	3.21835894175274	Jitter2	Exp	Val	Word	Mas	1	0.666705847497724
307.635041664971	0.5	cue	Exp	Val	CueFace2	Mas	1	0.609679809131194
308.152138689895	4.62033505017462	Jitter1	Exp	Val	CueFace2	Mas	1	0.609679809131194
312.755376715146	0.5	target	Exp	Val	Face	Mas	1	0.609679809131194
313.272226986219	6.01840038046248	Jitter2	Exp	Val	Face	Mas	1	0.609679809131194
319.293231231695	0.5	cue	Exp	Val	CueName1	Fem	1	0.739273678478639
319.810271050708	3.93643669226913	Jitter1	Exp	Val	CueName1	Fem	1	0.739273678478639
323.729667923964	0.5	target	Exp	Val	Word	Fem	1	0.739273678478639
324.246559178375	5.3182922584474	Jitter2	Exp	Val	Word	Fem	1	0.739273678478639
329.583681573124	0.5	cue	Exp	Inval	CueFace2	Mas	1	0.643178849864853
330.100738753134	6.03797120521995	Jitter1	Exp	Inval	CueFace2	Mas	1	0.643178849864853
336.121652778344	0.5	target	Exp	Inval	Word	Mas	1	0.643178849864853
336.638547448034	4.61835603876716	Jitter2	Exp	Inval	Word	Mas	1	0.643178849864853
341.275242392256	0.5	cue	Exp	Inval	CueName1	Fem	1	0.814081647347848
341.79226655791	2.53544774154761	Jitter1	Exp	Inval	CueName1	Fem	1	0.814081647347848
344.310690133803	0.5	target	Exp	Inval	Face	Fem	1	0.814081647347848
344.827602449097	6.01834972050165	Jitter2	Exp	Inval	Face	Fem	1	0.814081647347848
350.848602710081	0.5	cue	Exp	Val	CueName1	Fem	1	0.699226126424037
351.365626306522	4.63687068874424	Jitter1	Exp	Val	CueName1	Fem	1	0.699226126424037
355.985473398825	0.5	target	Exp	Val	Word	Fem	1	0.699226126424037
356.502421859146	3.91834639060653	Jitter2	Exp	Val	Word	Fem	1	0.699226126424037
360.438630154687	0.5	cue	Exp	Val	CueName1	Mas	1	0.789019197562084
360.955656597194	4.63694781711092	Jitter1	Exp	Val	CueName1	Mas	1	0.789019197562084
365.575577971798	0.5	target	Exp	Val	Word	Mas	1	0.789019197562084
366.092454711277	3.21828465945327	Jitter2	Exp	Val	Word	Mas	1	0.789019197562084
369.328168104546	0.5	cue	Exp	Inval	CueFace2	Fem	1	0.628396956644792
369.84520052379	3.23594748212963	Jitter1	Exp	Inval	CueFace2	Fem	1	0.628396956644792
373.064115586676	0.5	target	Exp	Inval	Word	Fem	1	0.628396956644792
373.581015948495	3.91836261317803	Jitter2	Exp	Inval	Word	Fem	1	0.628396956644792
377.517222536397	0.5	cue	Exp	Val	CueName1	Mas	1	0.677270725971539
378.03422564117	6.03793819086422	Jitter1	Exp	Val	CueName1	Mas	1	0.677270725971539
384.055160727261	0.5	target	Exp	Val	Word	Mas	1	0.677270725971539
384.572027220906	5.31838589399013	Jitter2	Exp	Val	Word	Mas	1	0.677270725971539
389.909219913463	0.5	cue	Exp	Val	CueFace2	Mas	1	0.61834493911374
390.426211918581	5.32073261701589	Jitter1	Exp	Val	CueFace2	Mas	1	0.61834493911374
395.729952530479	0.5	target	Exp	Val	Face	Mas	1	0.61834493911374
396.246846630957	2.51835754718195	Jitter2	Exp	Val	Face	Mas	1	0.61834493911374
398.782073090939	0.5	cue	Exp	Val	CueName1	Fem	1	0.642739132797942
399.299098964231	2.53545884120103	Jitter1	Exp	Val	CueName1	Fem	1	0.642739132797942
401.81753193214	0.5	target	Exp	Val	Word	Fem	1	0.642739132797942
402.334451931811	6.01834089769909	Jitter2	Exp	Val	Word	Fem	1	0.642739132797942
408.35543540101	0.5	cue	Exp	Val	CueFace2	Fem	1	0.664791868679458
408.872417729506	3.23590564496953	Jitter1	Exp	Val	CueFace2	Fem	1	0.664791868679458
412.09134104598	0.5	target	Exp	Val	Face	Fem	1	0.664791868679458
412.608275845188	4.6183586002262	Jitter2	Exp	Val	Face	Fem	1	0.664791868679458
417.244938344267	0.5	cue	Exp	Val	CueFace2	Fem	1	0.739359060433344
417.761969625086	3.91979290322342	Jitter1	Exp	Val	CueFace2	Fem	1	0.739359060433344
421.664731247491	0.5	target	Exp	Val	Face	Fem	1	0.739359060433344
422.181620509657	3.21836150321178	Jitter2	Exp	Val	Face	Fem	1	0.739359060433344
425.417342156516	0.5	cue	Exp	Val	CueFace2	Mas	1	0.770430976801435
425.934372298907	4.62024966821991	Jitter1	Exp	Val	CueFace2	Mas	1	0.770430976801435
430.537591824736	0.5	target	Exp	Val	Face	Mas	1	0.770430976801435
431.054494178801	6.01837875036654	Jitter2	Exp	Val	Face	Mas	1	0.770430976801435
437.075497855063	0.5	cue	Exp	Val	CueFace2	Fem	1	0.571680285564071
437.592518320833	5.32072891713142	Jitter1	Exp	Val	CueFace2	Fem	1	0.571680285564071
442.896226772195	0.5	target	Exp	Val	Face	Fem	1	0.571680285564071
443.413124003344	5.31835316424076	Jitter2	Exp	Val	Face	Fem	1	0.571680285564071
448.750260628418	0.5	cue	Exp	Inval	CueName1	Mas	1	0.805200501021318
449.267332892574	4.620301181998	Jitter1	Exp	Inval	CueName1	Mas	1	0.805200501021318
453.870561810416	0.5	target	Exp	Inval	Face	Mas	1	0.805200501021318
454.387458756959	4.61824162694757	Jitter2	Exp	Inval	Face	Mas	1	0.805200501021318
459.02414630141	0.5	cue	Exp	Inval	CueName1	Mas	1	0.754317409693613
459.541198073897	6.02123178838519	Jitter1	Exp	Inval	CueName1	Mas	1	0.754317409693613
465.545378089795	0.5	target	Exp	Inval	Face	Mas	1	0.754317409693613
466.062276743976	3.91837712810957	Jitter2	Exp	Inval	Face	Mas	1	0.754317409693613
