onset	duration	section	btype	validity	stim	gender	accuracy	reaction_time
10.0546686315793	0.5	cue	Att	Val	CueName2	Fem	1	0.648971067626917
10.5716700790799	3.23594122565737	Jitter1	Att	Val	CueName2	Fem	1	0.648971067626917
13.7906098572366	0.5	target	Att	Val	Word	Fem	1	0.648971067626917
14.3074678638295	6.01828615436534	Jitter2	Att	Val	Word	Fem	1	0.648971067626917
20.3452409209585	0.5	cue	Att	Inval	CueFace2	Fem	1	0.904943929974252
20.8621638174864	5.33730414197089	Jitter1	Att	Inval	CueFace2	Fem	1	0.904943929974252
26.1825450629294	0.5	target	Att	Inval	Word	Fem	1	0.904943929974252
26.6994124614866	5.31836595760069	Jitter2	Att	Inval	Word	Fem	1	0.904943929974252
32.0366238222341	0.5	cue	Att	Inval	CueName2	Fem	1	0.634824777254835
32.5536708065301	3.23588174321594	Jitter1	Att	Inval	CueName2	Fem	1	0.634824777254835
35.77250556545	0.5	target	Att	Inval	Face	Fem	1	0.634824777254835
36.2894051243693	5.31846556934397	Jitter2	Att	Inval	Face	Fem	1	0.634824777254835
41.6266167697231	0.5	cue	Att	Inval	CueName2	Fem	1	0.61720573695311
42.1437622273424	2.53539632096727	Jitter1	Att	Inval	CueName2	Fem	1	0.61720573695311
44.6620130906904	0.5	target	Att	Inval	Face	Fem	1	0.61720573695311
45.1789191955249	6.01829469251607	Jitter2	Att	Inval	Face	Fem	1	0.61720573695311
51.2165041287644	0.5	cue	Att	Val	CueName2	Fem	1	0.738991906404408
51.7335972190685	2.5355446001613	Jitter1	Att	Val	CueName2	Fem	1	0.738991906404408
54.2520487289257	0.5	target	Att	Val	Word	Fem	1	0.738991906404408
54.7689124276185	3.91844928993851	Jitter2	Att	Val	Word	Fem	1	0.738991906404408
58.7051495286087	0.5	cue	Att	Inval	CueFace2	Fem	0	1.13035050241342
59.2222007819801	2.53545523419962	Jitter1	Att	Inval	CueFace2	Fem	0	1.13035050241342
61.7406047628083	0.5	target	Att	Inval	Word	Fem	0	1.13035050241342
62.2574778534636	6.0184424024992	Jitter2	Att	Inval	Word	Fem	0	1.13035050241342
68.2951049082403	0.5	cue	Att	Val	CueFace2	Mas	1	0.582440954427511
68.8121686842314	6.02124576152164	Jitter1	Att	Val	CueFace2	Mas	1	0.582440954427511
74.816350669762	0.5	target	Att	Val	Face	Mas	1	0.582440954427511
75.3331935922906	3.2183375540244	Jitter2	Att	Val	Face	Mas	1	0.582440954427511
78.5689404327477	0.5	cue	Att	Inval	CueFace2	Mas	1	0.619788242513096
79.085931349864	6.03791706724769	Jitter1	Att	Inval	CueFace2	Mas	1	0.619788242513096
85.1068574999954	0.5	target	Att	Inval	Word	Mas	1	0.619788242513096
85.6237081068593	2.51841536502616	Jitter2	Att	Inval	Word	Mas	1	0.619788242513096
88.1589071965791	0.5	cue	Att	Inval	CueFace2	Mas	1	0.517012831700413
88.6759422274663	5.33733914838194	Jitter1	Att	Inval	CueFace2	Mas	1	0.517012831700413
93.996246344961	0.5	target	Att	Inval	Word	Mas	1	0.517012831700413
94.5132090861844	6.01842418778142	Jitter2	Att	Inval	Word	Mas	1	0.517012831700413
100.550882531574	0.5	cue	Att	Inval	CueName2	Fem	1	0.654509765081457
101.067915001016	4.63687592532187	Jitter1	Att	Inval	CueName2	Fem	1	0.654509765081457
105.687758456896	0.5	target	Att	Inval	Face	Fem	1	0.654509765081457
106.204652323715	2.51843585658389	Jitter2	Att	Inval	Face	Fem	1	0.654509765081457
108.739923703099	0.5	cue	Att	Inval	CueName2	Mas	1	0.750889532855581
109.256932265724	2.53542449686029	Jitter1	Att	Inval	CueName2	Mas	1	0.750889532855581
111.775348199959	0.5	target	Att	Inval	Face	Mas	1	0.750889532855581
112.292212467861	4.61837375577852	Jitter2	Att	Inval	Face	Mas	1	0.750889532855581
116.928895431009	0.5	cue	Att	Val	CueName2	Fem	1	0.652236340525633
117.445915377833	4.63693455394787	Jitter1	Att	Val	CueName2	Fem	1	0.652236340525633
122.065829984957	0.5	target	Att	Val	Word	Fem	1	0.652236340525633
122.582697668118	5.31844251633993	Jitter2	Att	Val	Word	Fem	1	0.652236340525633
127.919870891799	0.5	cue	Att	Val	CueFace2	Mas	1	0.593284688649874
128.436905922686	5.32075521638217	Jitter1	Att	Val	CueFace2	Mas	1	0.593284688649874
133.740626108181	0.5	target	Att	Val	Face	Mas	1	0.593284688649874
134.257444839286	3.9183949303897	Jitter2	Att	Val	Face	Mas	1	0.593284688649874
138.193617904159	0.5	cue	Att	Val	CueFace2	Fem	1	0.516959325963398
138.710739170354	5.3208181140817	Jitter1	Att	Val	CueFace2	Fem	1	0.516959325963398
144.01443601824	0.5	target	Att	Val	Face	Fem	1	0.516959325963398
144.531309108896	3.21841923565444	Jitter2	Att	Val	Face	Fem	1	0.516959325963398
147.767022935177	0.5	cue	Att	Val	CueName2	Fem	1	0.778211041420946
148.284067927239	3.93641754054624	Jitter1	Att	Val	CueName2	Fem	1	0.778211041420946
152.203440475723	0.5	target	Att	Val	Word	Fem	1	0.778211041420946
152.720304174416	2.51840398082641	Jitter2	Att	Val	Word	Fem	1	0.778211041420946
155.255532009238	0.5	cue	Att	Val	CueFace2	Fem	1	0.540738925594269
155.772518657279	6.0212423462599	Jitter1	Att	Val	CueFace2	Fem	1	0.540738925594269
161.776774355498	0.5	target	Att	Val	Face	Fem	1	0.540738925594269
162.293620124077	3.91836305463039	Jitter2	Att	Val	Face	Fem	1	0.540738925594269
166.229893085294	0.5	cue	Att	Val	CueFace2	Mas	1	0.639708598655488
166.746879448732	3.2358578364001	Jitter1	Att	Val	CueFace2	Mas	1	0.639708598655488
169.965750921694	0.5	target	Att	Val	Face	Mas	1	0.639708598655488
170.48261319736	5.31850029115049	Jitter2	Att	Val	Face	Mas	1	0.639708598655488
175.819811466279	0.5	cue	Att	Val	CueName2	Mas	1	0.568478803475955
176.336839097437	4.63695902997461	Jitter1	Att	Val	CueName2	Mas	1	0.568478803475955
180.956770496254	0.5	target	Att	Val	Word	Mas	1	0.568478803475955
181.473613703389	3.21845025759649	Jitter2	Att	Val	Word	Mas	1	0.568478803475955
184.709323260595	0.5	cue	Att	Val	CueName2	Mas	1	0.682451427892374
185.226322431256	5.3373878158327	Jitter1	Att	Val	CueName2	Mas	1	0.682451427892374
190.546711076428	0.5	target	Att	Val	Word	Mas	1	0.682451427892374
191.06363994966	2.51827505477195	Jitter2	Att	Val	Word	Mas	1	0.682451427892374
193.598870915137	0.5	cue	Att	Val	CueName2	Mas	1	0.61218815121174
194.115917614829	6.03787437650135	Jitter1	Att	Val	CueName2	Mas	1	0.61218815121174
200.136745291638	0.5	target	Att	Val	Word	Mas	1	0.61218815121174
200.65360842112	6.01843699500387	Jitter2	Att	Val	Word	Mas	1	0.61218815121174
206.691263367185	0.5	cue	Att	Val	CueName2	Mas	1	0.654045574365227
207.208288152293	2.53547686417551	Jitter1	Att	Val	CueName2	Mas	1	0.654045574365227
209.726740231361	0.5	target	Att	Val	Word	Mas	1	0.654045574365227
210.243605353078	5.31839100284014	Jitter2	Att	Val	Word	Mas	1	0.654045574365227
215.580734462988	0.5	cue	Att	Val	CueFace2	Fem	1	0.648017925559543
216.097813607646	3.2359349643466	Jitter1	Att	Val	CueFace2	Fem	1	0.648017925559543
219.316669427335	0.5	target	Att	Val	Face	Fem	1	0.648017925559543
219.833599154383	2.51823464086556	Jitter2	Att	Val	Face	Fem	1	0.648017925559543
222.368788567532	0.5	cue	Att	Inval	CueName2	Mas	1	0.563512446629829
222.885882511651	4.62027320939342	Jitter1	Att	Inval	CueName2	Mas	1	0.563512446629829
227.489061776925	0.5	target	Att	Inval	Face	Mas	1	0.563512446629829
228.005944259547	3.91843847494965	Jitter2	Att	Inval	Face	Mas	1	0.563512446629829
231.942093132995	0.5	cue	Att	Inval	CueName2	Fem	1	0.745587911347684
232.459207853277	5.32077115426	Jitter1	Att	Inval	CueName2	Fem	1	0.745587911347684
237.762864287255	0.5	target	Att	Inval	Face	Fem	1	0.745587911347684
238.27975217737	3.21837626030356	Jitter2	Att	Inval	Face	Fem	1	0.745587911347684
241.515458034712	0.5	cue	Att	Inval	CueFace2	Mas	1	0.844431789009832
242.032521810703	3.93642067120163	Jitter1	Att	Inval	CueFace2	Mas	1	0.844431789009832
245.951878705913	0.5	target	Att	Inval	Word	Mas	1	0.844431789009832
246.468772288128	3.21838650608152	Jitter2	Att	Inval	Word	Mas	1	0.844431789009832
249.704478999283	0.5	cue	Att	Val	CueFace2	Fem	1	0.639297059859018
250.22154135225	3.93640644095285	Jitter1	Att	Val	CueFace2	Fem	1	0.639297059859018
254.140885440236	0.5	target	Att	Val	Face	Fem	1	0.639297059859018
254.657823990037	4.61842470006923	Jitter2	Att	Val	Face	Fem	1	0.639297059859018
259.29449926885	0.5	cue	Att	Inval	CueFace2	Fem	1	0.957613211590797
259.81151893107	3.23594264868188	Jitter1	Att	Inval	CueFace2	Fem	1	0.957613211590797
263.030441917532	0.5	target	Att	Inval	Word	Fem	1	0.957613211590797
263.547318423449	2.51844183328831	Jitter2	Att	Inval	Word	Fem	1	0.957613211590797
266.082463153616	0.5	cue	Att	Val	CueName2	Mas	1	0.649496163810909
266.599554536291	3.23602518412554	Jitter1	Att	Val	CueName2	Mas	1	0.649496163810909
269.818488337742	0.5	target	Att	Val	Word	Mas	1	0.649496163810909
270.33535516709	3.91840204551227	Jitter2	Att	Val	Word	Mas	1	0.649496163810909
274.271500056067	0.5	cue	Att	Val	CueFace2	Fem	1	0.595423210446825
274.788577208492	4.63695276866565	Jitter1	Att	Val	CueFace2	Fem	1	0.595423210446825
279.408452824733	0.5	target	Att	Val	Face	Fem	1	0.595423210446825
279.925351529837	5.31841177900424	Jitter2	Att	Val	Face	Fem	1	0.595423210446825
285.262520199838	0.5	cue	Att	Val	CueName2	Fem	1	0.54725780258741
285.779546407972	6.03787807636763	Jitter1	Att	Val	CueName2	Fem	1	0.54725780258741
291.800398276206	0.5	target	Att	Val	Word	Fem	1	0.54725780258741
292.317295273679	3.21832844666642	Jitter2	Att	Val	Word	Fem	1	0.54725780258741
295.553002554045	0.5	cue	Att	Inval	CueFace2	Mas	1	0.690622152171272
296.070020508634	3.23591304976435	Jitter1	Att	Inval	CueFace2	Mas	1	0.690622152171272
299.288915603809	0.5	target	Att	Inval	Word	Mas	1	0.690622152171272
299.805831669817	5.31841974794224	Jitter2	Att	Inval	Word	Mas	1	0.690622152171272
305.143007739549	0.5	cue	Att	Inval	CueFace2	Fem	1	0.671999879326904
305.660060985154	3.93641042542185	Jitter1	Att	Inval	CueFace2	Fem	1	0.671999879326904
309.579418164971	0.5	target	Att	Inval	Word	Fem	1	0.671999879326904
310.096314593235	3.21853734671822	Jitter2	Att	Inval	Word	Fem	1	0.671999879326904
313.332036673059	0.5	cue	Att	Inval	CueName2	Fem	0	0.614001369518519
313.849085364986	6.02120022472445	Jitter1	Att	Inval	CueName2	Fem	0	0.614001369518519
319.853236897783	0.5	target	Att	Inval	Face	Fem	0	0.614001369518519
320.370121941849	3.9182756809023	Jitter2	Att	Inval	Face	Fem	0	0.614001369518519
324.306290168435	0.5	cue	Att	Val	CueFace2	Mas	1	0.733307775806679
324.823324914718	2.53553748503691	Jitter1	Att	Val	CueFace2	Mas	1	0.733307775806679
327.341827653472	0.5	target	Att	Val	Face	Mas	1	0.733307775806679
327.858647238392	4.61840050864703	Jitter2	Att	Val	Face	Mas	1	0.733307775806679
332.495340162715	0.5	cue	Att	Inval	CueFace2	Fem	1	0.516949080183622
333.012402800287	4.63690068595497	Jitter1	Att	Inval	CueFace2	Fem	1	0.516949080183622
337.63224084867	0.5	target	Att	Inval	Word	Fem	1	0.516949080183622
338.149141261403	3.91851958736879	Jitter2	Att	Inval	Word	Fem	1	0.516949080183622
342.085337379278	0.5	cue	Att	Inval	CueName2	Mas	1	0.496748388139167
342.602403432109	5.32075863164209	Jitter1	Att	Inval	CueName2	Mas	1	0.496748388139167
347.90609601092	0.5	target	Att	Inval	Face	Mas	1	0.496748388139167
348.422946048573	6.01844069486833	Jitter2	Att	Inval	Face	Mas	1	0.496748388139167
354.460546635088	0.5	cue	Att	Val	CueName2	Mas	1	0.609649190213531
354.977660786159	3.93650434506344	Jitter1	Att	Val	CueName2	Mas	1	0.609649190213531
358.897050980151	0.5	target	Att	Val	Word	Mas	1	0.609649190213531
359.413914394239	4.61849841275762	Jitter2	Att	Val	Word	Mas	1	0.609649190213531
364.05054954375	0.5	cue	Att	Inval	CueName2	Fem	1	0.755527455557967
364.567596243442	3.9364747461459	Jitter1	Att	Inval	CueName2	Fem	1	0.755527455557967
368.487024289896	0.5	target	Att	Inval	Face	Fem	1	0.755527455557967
369.003916733691	4.61822832263533	Jitter2	Att	Inval	Face	Fem	1	0.755527455557967
373.640593720134	0.5	cue	Att	Val	CueFace2	Mas	1	0.621387437879093
374.15765322705	3.93641298686634	Jitter1	Att	Val	CueFace2	Mas	1	0.621387437879093
378.077006707001	0.5	target	Att	Val	Face	Mas	1	0.621387437879093
378.593904273686	6.01846545550143	Jitter2	Att	Val	Face	Mas	1	0.621387437879093
384.631563204221	0.5	cue	Att	Inval	CueName2	Mas	1	0.521364726400861
385.148592258403	6.02125259203967	Jitter1	Att	Inval	CueName2	Mas	1	0.521364726400861
391.15281579626	0.5	target	Att	Inval	Face	Mas	1	0.521364726400861
391.669661280233	3.21839732107037	Jitter2	Att	Inval	Face	Mas	1	0.521364726400861
394.905411251346	0.5	cue	Att	Inval	CueName2	Mas	1	0.596315447048255
395.422432051984	3.9363748497999	Jitter1	Att	Inval	CueName2	Mas	1	0.596315447048255
399.341786101146	0.5	target	Att	Inval	Face	Mas	1	0.596315447048255
399.858681106385	5.3186073026227	Jitter2	Att	Inval	Face	Mas	1	0.596315447048255
405.195849207175	0.5	cue	Att	Inval	CueFace2	Mas	1	0.65862486844162
405.712874561495	2.53548483311715	Jitter1	Att	Inval	CueFace2	Mas	1	0.65862486844162
408.231334040293	0.5	target	Att	Inval	Word	Mas	1	0.65862486844162
408.748190908465	3.91842196786092	Jitter2	Att	Inval	Word	Mas	1	0.65862486844162
412.684404956453	0.5	cue	Att	Val	CueFace2	Fem	1	0.522000249313351
413.201426326303	2.53542250462669	Jitter1	Att	Val	CueFace2	Fem	1	0.522000249313351
415.71982746108	0.5	target	Att	Val	Face	Fem	1	0.522000249313351
416.236726735393	6.01853176846089	Jitter2	Att	Val	Face	Fem	1	0.522000249313351
422.274385381323	0.5	cue	Att	Val	CueFace2	Mas	1	0.535046256847636
422.791409312616	4.62027349399796	Jitter1	Att	Val	CueFace2	Mas	1	0.535046256847636
427.394658875321	0.5	target	Att	Val	Face	Mas	1	0.535046256847636
427.911508343765	2.51831945314916	Jitter2	Att	Val	Face	Mas	1	0.535046256847636
430.44670373362	0.5	cue	Att	Inval	CueFace2	Mas	1	0.697799035871867
430.963780886044	4.63705636487612	Jitter1	Att	Inval	CueFace2	Mas	1	0.697799035871867
435.583760098496	0.5	target	Att	Inval	Word	Mas	1	0.697799035871867
436.100528739127	4.61828922809946	Jitter2	Att	Inval	Word	Mas	1	0.697799035871867
440.737178972702	0.5	cue	Att	Inval	CueName2	Mas	1	0.592326423693521
441.254237341198	3.23596057879513	Jitter1	Att	Inval	CueName2	Mas	1	0.592326423693521
444.473139551497	0.5	target	Att	Inval	Face	Mas	1	0.592326423693521
444.990048217776	2.51837295888254	Jitter2	Att	Inval	Face	Mas	1	0.592326423693521
447.525261253139	0.5	cue	Att	Inval	CueFace2	Fem	0	0.682245943098678
448.04232047545	6.03784620060833	Jitter1	Att	Inval	CueFace2	Fem	0	0.682245943098678
454.063107453747	0.5	target	Att	Inval	Word	Fem	0	0.682245943098678
454.58003575777	4.61831057347263	Jitter2	Att	Inval	Word	Fem	0	0.682245943098678
459.21668456832	0.5	cue	Att	Val	CueName2	Fem	1	0.539050364266586
459.733783066118	5.3374256682946	Jitter1	Att	Val	CueName2	Fem	1	0.539050364266586
465.054110236615	0.5	target	Att	Val	Word	Fem	1	0.539050364266586
465.571005811065	4.61833448029029	Jitter2	Att	Val	Word	Fem	1	0.539050364266586
