onset	duration	section	btype	validity	stim	gender	accuracy	reaction_time
10.0699119963183	0.5	cue	Exp	Inval	CueFace2	Fem	1	1.08887002885649
10.5869539045818	4.63695201193764	Jitter1	Exp	Inval	CueFace2	Fem	1	1.08887002885649
15.2068640082559	0.5	target	Exp	Inval	Word	Fem	1	1.08887002885649
15.7237804043314	2.51889356879542	Jitter2	Exp	Inval	Word	Fem	1	1.08887002885649
18.2590027957058	0.5	cue	Exp	Val	CueName1	Mas	1	0.738770999455483
18.7760466962261	6.03793954524735	Jitter1	Exp	Val	CueName1	Mas	1	0.738770999455483
24.7969423409531	0.5	target	Exp	Val	Word	Mas	1	0.738770999455483
25.3138604446774	6.01825334279397	Jitter2	Exp	Val	Word	Mas	1	0.738770999455483
31.3515021475109	0.5	cue	Exp	Val	CueFace2	Mas	1	0.811355181561339
31.8685779241423	5.32082267120086	Jitter1	Exp	Val	CueFace2	Mas	1	0.811355181561339
37.1723248187118	0.5	target	Exp	Val	Face	Mas	1	0.811355181561339
37.6892420686117	3.21853521869116	Jitter2	Exp	Val	Face	Mas	1	0.811355181561339
40.9249548113435	0.5	cue	Exp	Inval	CueName1	Mas	1	0.561371048464935
41.4419938735255	6.02131387638246	Jitter1	Exp	Inval	CueName1	Mas	1	0.561371048464935
47.4462686877259	0.5	target	Exp	Inval	Face	Mas	1	0.561371048464935
47.9631423925812	6.01837657811666	Jitter2	Exp	Inval	Face	Mas	1	0.561371048464935
54.0008378863522	0.5	cue	Exp	Val	CueFace2	Fem	1	0.4903382653074
54.5178877636431	3.9364516992955	Jitter1	Exp	Val	CueFace2	Fem	1	0.4903382653074
58.4372895856477	0.5	target	Exp	Val	Face	Fem	1	0.4903382653074
58.9542156583998	6.01830485686605	Jitter2	Exp	Val	Face	Fem	1	0.4903382653074
64.9918872450871	0.5	cue	Exp	Inval	CueFace2	Mas	1	1.10612126640353
65.5089388300271	5.33758068284897	Jitter1	Exp	Inval	CueFace2	Mas	1	1.10612126640353
70.8294679279361	0.5	target	Exp	Inval	Word	Mas	1	1.10612126640353
71.3462744652711	5.31843751271845	Jitter2	Exp	Inval	Word	Mas	1	1.10612126640353
76.6834204091924	0.5	cue	Exp	Inval	CueName1	Fem	1	0.768644607828719
77.2004845168904	2.53549404984005	Jitter1	Exp	Inval	CueName1	Fem	1	0.768644607828719
79.7189144590325	0.5	target	Exp	Inval	Face	Fem	1	0.768644607828719
80.2358678541655	3.91838349409454	Jitter2	Exp	Inval	Face	Fem	1	0.768644607828719
84.1721258776247	0.5	cue	Exp	Val	CueFace2	Fem	1	0.806617594531872
84.6891464402779	5.32078140302156	Jitter1	Exp	Val	CueFace2	Fem	1	0.806617594531872
89.9929072806463	0.5	target	Exp	Val	Face	Fem	1	0.806617594531872
90.509791231394	2.51836846678452	Jitter2	Exp	Val	Face	Fem	1	0.806617594531872
93.0450378144601	0.5	cue	Exp	Val	CueFace2	Mas	1	0.702006458897358
93.562035039246	3.93641526945385	Jitter1	Exp	Val	CueFace2	Mas	1	0.702006458897358
97.4814530839139	0.5	target	Exp	Val	Face	Mas	1	0.702006458897358
97.9983743183279	4.61838773475529	Jitter2	Exp	Val	Face	Mas	1	0.702006458897358
102.635034464622	0.5	cue	Exp	Val	CueFace2	Fem	0	0.676032551201843
103.15211394116	4.62035850379243	Jitter1	Exp	Val	CueFace2	Fem	0	0.676032551201843
107.755392968415	0.5	target	Exp	Val	Face	Fem	0	0.676032551201843
108.272277488379	4.61834105902108	Jitter2	Exp	Val	Face	Fem	0	0.676032551201843
112.909030416925	0.5	cue	Exp	Val	CueFace2	Mas	1	0.566947091062957
113.426052118011	2.53546245833695	Jitter1	Exp	Val	CueFace2	Mas	1	0.566947091062957
115.944492875262	0.5	target	Exp	Val	Face	Mas	1	0.566947091062957
116.461375118362	4.61854113854042	Jitter2	Exp	Val	Face	Mas	1	0.566947091062957
121.098095601581	0.5	cue	Exp	Val	CueFace2	Fem	1	0.725341764564746
121.615148894169	3.23595451734309	Jitter1	Exp	Val	CueFace2	Fem	1	0.725341764564746
124.834050118924	0.5	target	Exp	Val	Face	Fem	1	0.725341764564746
125.350969930297	5.31858266286781	Jitter2	Exp	Val	Face	Fem	1	0.725341764564746
130.68814461964	0.5	cue	Exp	Val	CueName1	Fem	1	0.661287003682446
131.205203319783	6.03796487537147	Jitter1	Exp	Val	CueName1	Fem	1	0.661287003682446
137.226109495011	0.5	target	Exp	Val	Word	Fem	1	0.661287003682446
137.743027314128	5.31845430459816	Jitter2	Exp	Val	Word	Fem	1	0.661287003682446
143.080188057672	0.5	cue	Exp	Val	CueName1	Fem	1	0.555668070638603
143.597294571982	2.53550287269218	Jitter1	Exp	Val	CueName1	Fem	1	0.555668070638603
146.115690930364	0.5	target	Exp	Val	Word	Fem	1	0.555668070638603
146.632620133806	3.2182343878917	Jitter2	Exp	Val	Word	Fem	1	0.555668070638603
149.868378129231	0.5	cue	Exp	Val	CueFace2	Fem	1	0.833742457528842
150.385372223328	6.02123134002341	Jitter1	Exp	Val	CueFace2	Fem	1	0.833742457528842
156.389609469254	0.5	target	Exp	Val	Face	Fem	1	0.833742457528842
156.906521026991	3.21853749555657	Jitter2	Exp	Val	Face	Fem	1	0.833742457528842
160.142214985586	0.5	cue	Exp	Val	CueName1	Fem	1	0.544071712142795
160.659290762218	4.63694945046427	Jitter1	Exp	Val	CueName1	Fem	1	0.544071712142795
165.27916443605	0.5	target	Exp	Val	Word	Fem	1	0.544071712142795
165.796113277454	6.01845427613762	Jitter2	Exp	Val	Word	Fem	1	0.544071712142795
171.833855162351	0.5	cue	Exp	Val	CueName1	Mas	1	0.701439519490577
172.35083957977	3.23592064897457	Jitter1	Exp	Val	CueName1	Mas	1	0.701439519490577
175.569775811325	0.5	target	Exp	Val	Word	Mas	1	0.701439519490577
176.086692776617	3.91844810014118	Jitter2	Exp	Val	Word	Mas	1	0.701439519490577
180.022948807819	0.5	cue	Exp	Val	CueFace2	Mas	1	0.598961237225922
180.539889110978	6.02126350074241	Jitter1	Exp	Val	CueFace2	Mas	1	0.598961237225922
186.544212308562	0.5	target	Exp	Val	Face	Mas	1	0.598961237225922
187.061089428715	3.9185505590699	Jitter2	Exp	Val	Face	Mas	1	0.598961237225922
190.997340906187	0.5	cue	Exp	Val	CueFace2	Fem	1	0.646434443504404
191.514329592729	2.53542574388712	Jitter1	Exp	Val	CueFace2	Fem	1	0.646434443504404
194.032766650074	0.5	target	Exp	Val	Face	Fem	1	0.646434443504404
194.549693861259	3.91849022214501	Jitter2	Exp	Val	Face	Fem	1	0.646434443504404
198.485880163468	0.5	cue	Exp	Val	CueName1	Fem	1	0.623329101210402
199.002946548031	6.03793271465202	Jitter1	Exp	Val	CueName1	Fem	1	0.623329101210402
205.02381287812	0.5	target	Exp	Val	Word	Fem	1	0.623329101210402
205.540766273253	5.31853883321492	Jitter2	Exp	Val	Word	Fem	1	0.623329101210402
210.877945231718	0.5	cue	Exp	Val	CueName1	Mas	1	0.773661680047553
211.39503466954	2.53550970328752	Jitter1	Exp	Val	CueName1	Mas	1	0.773661680047553
213.913454935006	0.5	target	Exp	Val	Word	Mas	1	0.773661680047553
214.43037303873	4.61853060803969	Jitter2	Exp	Val	Word	Mas	1	0.773661680047553
219.067019808442	0.5	cue	Exp	Val	CueFace2	Mas	1	0.567564406109796
219.584099000371	3.936513743869	Jitter1	Exp	Val	CueFace2	Mas	1	0.567564406109796
223.503533552311	0.5	target	Exp	Val	Face	Mas	1	0.567564406109796
224.020445394656	2.51855175442415	Jitter2	Exp	Val	Face	Mas	1	0.567564406109796
226.555673762801	0.5	cue	Exp	Val	CueName1	Fem	1	0.614921492268422
227.07271794793	3.9364949597325	Jitter1	Exp	Val	CueName1	Fem	1	0.614921492268422
230.992168722534	0.5	target	Exp	Val	Word	Fem	1	0.614921492268422
231.509051250241	3.9182921348829	Jitter2	Exp	Val	Word	Fem	1	0.614921492268422
235.445218483705	0.5	cue	Exp	Val	CueName1	Fem	1	0.593797591816838
235.962269499428	3.23604729959516	Jitter1	Exp	Val	CueName1	Fem	1	0.593797591816838
239.1812657833	0.5	target	Exp	Val	Word	Fem	1	0.593797591816838
239.698151441697	4.61851040086231	Jitter2	Exp	Val	Word	Fem	1	0.593797591816838
244.334858548334	0.5	cue	Exp	Inval	CueName1	Fem	1	0.699668972276868
244.851967054901	3.93645881449902	Jitter1	Exp	Inval	CueName1	Fem	1	0.699668972276868
248.771317362833	0.5	target	Exp	Inval	Face	Fem	1	0.699668972276868
249.288287265238	4.61843754117899	Jitter2	Exp	Inval	Face	Fem	1	0.699668972276868
253.924922935232	0.5	cue	Exp	Val	CueFace2	Mas	1	0.497747753516705
254.442010380797	4.62029902069162	Jitter1	Exp	Val	CueFace2	Mas	1	0.497747753516705
259.045221955924	0.5	target	Exp	Val	Face	Mas	1	0.497747753516705
259.562136928959	6.01833616376098	Jitter2	Exp	Val	Face	Mas	1	0.497747753516705
265.599869991004	0.5	cue	Exp	Val	CueName1	Fem	1	0.577622173022974
266.116861239019	5.33744919388982	Jitter1	Exp	Val	CueName1	Fem	1	0.577622173022974
271.437319184894	0.5	target	Exp	Val	Word	Fem	1	0.577622173022974
271.954196020438	2.51854321618021	Jitter2	Exp	Val	Word	Fem	1	0.577622173022974
274.489448011059	0.5	cue	Exp	Val	CueName1	Fem	1	0.601068191255308
275.006452635656	3.93643319976673	Jitter1	Exp	Val	CueName1	Fem	1	0.601068191255308
278.925881210826	0.5	target	Exp	Val	Word	Fem	1	0.601068191255308
279.442815252605	2.51842168850635	Jitter2	Exp	Val	Word	Fem	1	0.601068191255308
281.977997798841	0.5	cue	Exp	Val	CueName1	Mas	1	1.00737476601626
282.495045683875	5.33751379993737	Jitter1	Exp	Val	CueName1	Mas	1	1.00737476601626
287.815511598778	0.5	target	Exp	Val	Word	Mas	1	1.00737476601626
288.332395549526	5.31849671121063	Jitter2	Exp	Val	Word	Mas	1	1.00737476601626
293.669546901001	0.5	cue	Exp	Val	CueFace2	Fem	1	0.727931698600969
294.186609016443	6.02135172926501	Jitter1	Exp	Val	CueFace2	Fem	1	0.727931698600969
300.190898630266	0.5	target	Exp	Val	Face	Fem	1	0.727931698600969
300.707774327379	3.21844869781808	Jitter2	Exp	Val	Face	Fem	1	0.727931698600969
303.943455763215	0.5	cue	Exp	Val	CueName1	Mas	1	0.746778449358317
304.460566262039	3.9365410662499	Jitter1	Exp	Val	CueName1	Mas	1	0.746778449358317
308.379996829465	0.5	target	Exp	Val	Word	Mas	1	0.746778449358317
308.896875088051	3.21846093596787	Jitter2	Exp	Val	Word	Mas	1	0.746778449358317
312.132522370911	0.5	cue	Exp	Inval	CueFace2	Fem	1	0.66273309762073
312.649673284091	2.53555524058947	Jitter1	Exp	Inval	CueFace2	Fem	1	0.66273309762073
315.1680776115	0.5	target	Exp	Inval	Word	Fem	1	0.66273309762073
315.684988315413	6.01856242722897	Jitter2	Exp	Inval	Word	Fem	1	0.66273309762073
321.722644248653	0.5	cue	Exp	Val	CueName1	Mas	1	0.779030812530891
322.239711202432	4.63705930920469	Jitter1	Exp	Val	CueName1	Mas	1	0.779030812530891
326.859703557858	0.5	target	Exp	Val	Word	Mas	1	0.779030812530891
327.376551932589	2.51843819577789	Jitter2	Exp	Val	Word	Mas	1	0.779030812530891
329.911761231989	0.5	cue	Exp	Val	CueFace2	Mas	1	0.7190345636659
330.428816801443	3.23598354737305	Jitter1	Exp	Val	CueFace2	Mas	1	0.7190345636659
333.647744779362	0.5	target	Exp	Val	Face	Mas	1	0.7190345636659
334.164663452302	5.31856217108225	Jitter2	Exp	Val	Face	Mas	1	0.7190345636659
339.501883394339	0.5	cue	Exp	Val	CueFace2	Mas	1	0.608896338032537
340.018911356804	3.23594654831504	Jitter1	Exp	Val	CueFace2	Mas	1	0.608896338032537
343.237829942654	0.5	target	Exp	Val	Face	Mas	1	0.608896338032537
343.754751461676	2.51855403128911	Jitter2	Exp	Val	Face	Mas	1	0.608896338032537
346.289915792991	0.5	cue	Exp	Val	CueName1	Mas	1	0.761222312253267
346.807012630624	2.53550828024663	Jitter1	Exp	Val	CueName1	Mas	1	0.761222312253267
349.325424073238	0.5	target	Exp	Val	Word	Mas	1	0.761222312253267
349.842370068559	6.01843150748664	Jitter2	Exp	Val	Word	Mas	1	0.761222312253267
355.880061293208	0.5	cue	Exp	Inval	CueFace2	Fem	1	0.466062329750912
356.397145038868	3.93652683584332	Jitter1	Exp	Inval	CueFace2	Fem	1	0.466062329750912
360.316588129052	0.5	target	Exp	Inval	Word	Fem	1	0.466062329750912
360.833565715876	3.21830838600727	Jitter2	Exp	Inval	Word	Fem	1	0.466062329750912
364.069164615354	0.5	cue	Exp	Val	CueName1	Mas	1	0.825475160398128
364.586228438443	3.23596334019521	Jitter1	Exp	Val	CueName1	Mas	1	0.825475160398128
367.805127955549	0.5	target	Exp	Val	Word	Mas	1	0.825475160398128
368.322048336138	3.21860181699503	Jitter2	Exp	Val	Word	Mas	1	0.825475160398128
371.557751117585	0.5	cue	Exp	Inval	CueName1	Fem	1	0.67282729437602
372.074833155596	3.23597643216908	Jitter1	Exp	Inval	CueName1	Fem	1	0.67282729437602
375.293727549754	0.5	target	Exp	Inval	Face	Fem	1	0.67282729437602
375.810655045547	5.31836892215779	Jitter2	Exp	Inval	Face	Fem	1	0.67282729437602
381.147860472569	0.5	cue	Exp	Inval	CueName1	Mas	1	0.634418857224318
381.664895265629	4.62027055987846	Jitter1	Exp	Inval	CueName1	Mas	1	0.634418857224318
386.268131032447	0.5	target	Exp	Inval	Face	Mas	1	0.634418857224318
386.785048282347	3.2184848430511	Jitter2	Exp	Inval	Face	Mas	1	0.634418857224318
390.020747648497	0.5	cue	Exp	Val	CueName1	Fem	1	0.47634038336173
390.537840501616	5.33747139332445	Jitter1	Exp	Val	CueName1	Fem	1	0.47634038336173
395.858219041821	0.5	target	Exp	Val	Word	Fem	1	0.47634038336173
396.375135153289	4.61844551020704	Jitter2	Exp	Val	Word	Fem	1	0.47634038336173
401.011823760397	0.5	cue	Exp	Val	CueFace2	Mas	1	0.626343955193533
401.528887868094	4.6203260584648	Jitter1	Exp	Val	CueFace2	Mas	1	0.626343955193533
406.132149818861	0.5	target	Exp	Val	Face	Mas	1	0.626343955193533
406.64903519265	6.01849810579051	Jitter2	Exp	Val	Face	Mas	1	0.626343955193533
412.686701940999	0.5	cue	Exp	Val	CueName1	Mas	1	0.774762544316673
413.203763771832	4.63701291807865	Jitter1	Exp	Val	CueName1	Mas	1	0.774762544316673
417.823714859078	0.5	target	Exp	Val	Word	Mas	1	0.774762544316673
418.340599948258	3.91839260155439	Jitter2	Exp	Val	Word	Mas	1	0.774762544316673
422.276815565105	0.5	cue	Exp	Val	CueFace2	Fem	0	0.676875275892144
422.793834420109	5.32076404192503	Jitter1	Exp	Val	CueFace2	Fem	0	0.676875275892144
428.09757960703	0.5	target	Exp	Val	Face	Fem	0	0.676875275892144
428.614500272228	5.31843608967756	Jitter2	Exp	Val	Face	Fem	0	0.676875275892144
433.951654185177	0.5	cue	Exp	Inval	CueFace2	Mas	0	0.614782888106674
434.468697231873	3.23602083103879	Jitter1	Exp	Inval	CueFace2	Mas	0	0.614782888106674
437.687675016216	0.5	target	Exp	Inval	Word	Mas	0	0.614782888106674
438.204586573953	4.61849417819803	Jitter2	Exp	Inval	Word	Mas	0	0.614782888106674
442.841264935168	0.5	cue	Exp	Val	CueFace2	Fem	1	1.16161359151874
443.358360918977	2.53549917278633	Jitter1	Exp	Val	CueFace2	Fem	1	1.16161359151874
445.876764107954	0.5	target	Exp	Val	Face	Fem	1	1.16161359151874
446.393717503087	3.91832002647971	Jitter2	Exp	Val	Face	Fem	1	1.16161359151874
450.329850583575	0.5	cue	Exp	Inval	CueName1	Mas	1	0.615611097782221
450.846903591555	5.32089325401876	Jitter1	Exp	Inval	CueName1	Mas	1	0.615611097782221
456.150743837593	0.5	target	Exp	Inval	Face	Mas	1	0.615611097782221
456.667585381729	2.51838782013783	Jitter2	Exp	Inval	Face	Mas	1	0.615611097782221
459.202864410122	0.5	cue	Exp	Inval	CueFace2	Mas	1	0.809516043787426
459.719847973718	6.0379159227723	Jitter1	Exp	Inval	CueFace2	Mas	1	0.809516043787426
465.740780332895	0.5	target	Exp	Inval	Word	Mas	1	0.809516043787426
466.257675667968	3.91849420665903	Jitter2	Exp	Inval	Word	Mas	1	0.809516043787426
