onset	duration	section	btype	validity	stim	gender	accuracy	reaction_time
10.0568609437159	0.5	cue	Att	Val	CueName2	Fem	1	0.678816168521735
10.5738410458434	3.23591902646876	Jitter1	Att	Val	CueName2	Fem	1	0.678816168521735
13.7927799701847	0.5	target	Att	Val	Word	Fem	1	0.678816168521735
14.3096041087847	6.01845976340155	Jitter2	Att	Val	Word	Fem	1	0.678816168521735
20.3306398318327	0.5	cue	Att	Inval	CueFace2	Fem	1	0.751475249897339
20.8475826507074	5.33733687154199	Jitter1	Att	Inval	CueFace2	Fem	1	0.751475249897339
26.1679767033747	0.5	target	Att	Inval	Word	Fem	1	0.751475249897339
26.6848546323163	5.31838018784947	Jitter2	Att	Inval	Word	Fem	1	0.751475249897339
32.0220665622728	0.5	cue	Att	Inval	CueName2	Fem	1	0.617327547883178
32.5390981779019	3.23591788804879	Jitter1	Att	Inval	CueName2	Fem	1	0.617327547883178
35.7579844503216	0.5	target	Att	Inval	Face	Fem	1	0.617327547883178
36.2748407492854	5.31838303390032	Jitter2	Att	Inval	Face	Fem	1	0.617327547883178
41.6119806741826	0.5	cue	Att	Inval	CueName2	Fem	1	0.879645393582905
42.1290390426802	2.53550447086127	Jitter1	Att	Inval	CueName2	Fem	1	0.879645393582905
44.6474851450439	0.5	target	Att	Inval	Face	Fem	1	0.879645393582905
45.164338028746	6.01839771951745	Jitter2	Att	Inval	Face	Fem	1	0.879645393582905
51.1853088618591	0.5	cue	Att	Val	CueName2	Fem	1	0.67423032853003
51.7024557425029	2.53550560927943	Jitter1	Att	Val	CueName2	Fem	1	0.67423032853003
54.2208144711385	0.5	target	Att	Val	Word	Fem	1	0.67423032853003
54.7376457248629	3.91828848812656	Jitter2	Att	Val	Word	Fem	1	0.67423032853003
58.673780083458	0.5	cue	Att	Inval	CueFace2	Fem	1	1.02572971293012
59.1908768736248	2.53547629496643	Jitter1	Att	Inval	CueFace2	Fem	1	1.02572971293012
61.7092563784245	0.5	target	Att	Inval	Word	Fem	1	1.02572971293012
62.2261724444325	6.01839430425753	Jitter2	Att	Inval	Word	Fem	1	1.02572971293012
68.2638393439065	0.5	cue	Att	Val	CueFace2	Mas	1	0.557696259324075
68.7808609983604	6.021208478267	Jitter1	Att	Val	CueFace2	Mas	1	0.557696259324075
74.7850478221735	0.5	target	Att	Val	Face	Mas	1	0.557696259324075
75.3019174975707	3.21837711411717	Jitter2	Att	Val	Face	Mas	1	0.557696259324075
78.5376307546412	0.5	cue	Att	Inval	CueFace2	Mas	1	0.627181710602599
79.054653547515	6.03779411789765	Jitter1	Att	Inval	CueFace2	Mas	1	0.627181710602599
85.0754248725389	0.5	target	Att	Inval	Word	Mas	1	0.627181710602599
85.5923796448242	2.51839743491291	Jitter2	Att	Inval	Word	Mas	1	0.627181710602599
88.1276151639813	0.5	cue	Att	Inval	CueFace2	Mas	1	0.801482905771991
88.6446018120223	5.33737956228833	Jitter1	Att	Inval	CueFace2	Mas	1	0.801482905771991
93.9649947262697	0.5	target	Att	Inval	Word	Mas	1	0.801482905771991
94.4818578557515	6.01843471816392	Jitter2	Att	Inval	Word	Mas	1	0.801482905771991
100.51954097771	0.5	cue	Att	Inval	CueName2	Fem	1	0.574530928306558
101.036584546746	4.62024161824047	Jitter1	Att	Inval	CueName2	Fem	1	0.574530928306558
105.63978259595	0.5	target	Att	Inval	Face	Fem	1	0.574530928306558
106.156671624485	2.51828387752721	Jitter2	Att	Inval	Face	Fem	1	0.574530928306558
108.69181720847	0.5	cue	Att	Inval	CueName2	Mas	1	0.550844679110014
109.208902899043	2.53552439320811	Jitter1	Att	Inval	CueName2	Mas	1	0.550844679110014
111.727341601678	0.5	target	Att	Inval	Face	Mas	1	0.550844679110014
112.244230061002	4.61836948670316	Jitter2	Att	Inval	Face	Mas	1	0.550844679110014
116.880894809432	0.5	cue	Att	Val	CueName2	Fem	1	0.588268241328478
117.397930694135	4.63693910762595	Jitter1	Att	Val	CueName2	Fem	1	0.588268241328478
122.017833917058	0.5	target	Att	Val	Word	Fem	1	0.588268241328478
122.534646956065	5.31828683741878	Jitter2	Att	Val	Word	Fem	1	0.588268241328478
127.871848355637	0.5	cue	Att	Val	CueFace2	Mas	1	0.585390315802215
128.388872856141	5.32071622550211	Jitter1	Att	Val	CueFace2	Mas	1	0.585390315802215
133.692564581139	0.5	target	Att	Val	Face	Mas	1	0.585390315802215
134.209429702854	3.91827141182875	Jitter2	Att	Val	Face	Mas	1	0.585390315802215
138.145605613776	0.5	cue	Att	Val	CueFace2	Fem	1	0.751467280957513
138.662670812791	5.32071707931573	Jitter1	Att	Val	CueFace2	Fem	1	0.751467280957513
143.966322693092	0.5	target	Att	Val	Face	Fem	1	0.751467280957513
144.483238189889	3.21838337542795	Jitter2	Att	Val	Face	Fem	1	0.751467280957513
147.718944616441	0.5	cue	Att	Val	CueName2	Fem	1	0.970301755272885
148.23601977663	3.93637399598447	Jitter1	Att	Val	CueName2	Fem	1	0.970301755272885
152.155318612426	0.5	target	Att	Val	Word	Fem	1	0.970301755272885
152.672235532249	2.51838918136673	Jitter2	Att	Val	Word	Fem	1	0.970301755272885
155.2074707668	0.5	cue	Att	Val	CueFace2	Fem	1	0.644807866026895
155.724441476963	6.02120648603341	Jitter1	Att	Val	CueFace2	Fem	1	0.644807866026895
161.728677252833	0.5	target	Att	Val	Face	Fem	1	0.644807866026895
162.245563435319	3.91836760831029	Jitter2	Att	Val	Face	Fem	1	0.644807866026895
166.181774352652	0.5	cue	Att	Val	CueFace2	Mas	1	0.711707965694586
166.698768969633	3.23589455044021	Jitter1	Att	Val	CueFace2	Mas	1	0.711707965694586
169.917668903092	0.5	target	Att	Val	Face	Mas	1	0.711707965694586
170.434553377947	5.3183690882579	Jitter2	Att	Val	Face	Mas	1	0.711707965694586
175.771747377792	0.5	cue	Att	Val	CueName2	Mas	1	0.576604275564023
176.288827376266	4.63688702491527	Jitter1	Att	Val	CueName2	Mas	1	0.576604275564023
180.908634402707	0.5	target	Att	Val	Word	Mas	1	0.576604275564023
181.425510054809	3.21829514788442	Jitter2	Att	Val	Word	Mas	1	0.576604275564023
184.661236688313	0.5	cue	Att	Val	CueName2	Mas	1	0.570457946485476
185.178267450126	5.33739806161248	Jitter1	Att	Val	CueName2	Mas	1	0.570457946485476
190.498634749925	0.5	target	Att	Val	Word	Mas	1	0.570457946485476
191.015495033358	2.51836356692002	Jitter2	Att	Val	Word	Mas	1	0.570457946485476
193.550670785469	0.5	cue	Att	Val	CueName2	Mas	1	0.620366275221386
194.067755906834	6.03792589000295	Jitter1	Att	Val	CueName2	Mas	1	0.620366275221386
200.088596675472	0.5	target	Att	Val	Word	Mas	1	0.620366275221386
200.605477735067	6.01841508042162	Jitter2	Att	Val	Word	Mas	1	0.620366275221386
206.643105928264	0.5	cue	Att	Val	CueName2	Mas	1	0.590215793185052
207.160187918975	2.53547657957279	Jitter1	Att	Val	CueName2	Mas	1	0.590215793185052
209.678582507837	0.5	target	Att	Val	Word	Mas	1	0.590215793185052
210.195465275063	5.31824756193055	Jitter2	Att	Val	Word	Mas	1	0.590215793185052
215.532641629397	0.5	cue	Att	Val	CueFace2	Fem	1	0.664040331939759
216.049671822	3.23599643902344	Jitter1	Att	Val	CueFace2	Fem	1	0.664040331939759
219.268638068421	0.5	target	Att	Val	Face	Fem	1	0.664040331939759
219.785497782643	2.5183524673248	Jitter2	Att	Val	Face	Fem	1	0.664040331939759
222.320691749472	0.5	cue	Att	Inval	CueName2	Mas	1	0.787658503626517
222.837700596703	4.620233933907	Jitter1	Att	Inval	CueName2	Mas	1	0.787658503626517
227.440925683379	0.5	target	Att	Inval	Face	Mas	1	0.787658503626517
227.957785397601	3.91839976867414	Jitter2	Att	Inval	Face	Mas	1	0.787658503626517
231.893927440529	0.5	cue	Att	Inval	CueName2	Fem	1	0.913628935446468
232.410978409298	5.32080872211918	Jitter1	Att	Inval	CueName2	Fem	1	0.913628935446468
237.714736162648	0.5	target	Att	Inval	Face	Fem	1	0.913628935446468
238.231825553086	3.21812296187272	Jitter2	Att	Inval	Face	Fem	1	0.913628935446468
241.467329910105	0.5	cue	Att	Inval	CueFace2	Mas	1	0.740618708450711
241.984319404197	3.93634695851142	Jitter1	Att	Inval	CueFace2	Mas	1	0.740618708450711
245.903676868616	0.5	target	Att	Inval	Word	Mas	1	0.740618708450711
246.420598911329	3.21839191357503	Jitter2	Att	Inval	Word	Mas	1	0.740618708450711
249.656252116749	0.5	cue	Att	Val	CueFace2	Fem	1	0.704054937868932
250.17330906222	3.91984897721522	Jitter1	Att	Val	CueFace2	Fem	1	0.704054937868932
254.076101093964	0.5	target	Att	Val	Face	Fem	1	0.704054937868932
254.592984430399	4.61823572236608	Jitter2	Att	Val	Face	Fem	1	0.704054937868932
259.229586565734	0.5	cue	Att	Inval	CueFace2	Fem	1	0.622535534354029
259.74664493423	3.23595944037515	Jitter1	Att	Inval	CueFace2	Fem	1	0.622535534354029
262.965546006109	0.5	target	Att	Inval	Word	Fem	1	0.622535534354029
263.482431050175	2.5184959082344	Jitter2	Att	Inval	Word	Fem	1	0.622535534354029
266.017662869466	0.5	cue	Att	Val	CueName2	Mas	1	0.610374932904961
266.534690500626	3.2359238647532	Jitter1	Att	Val	CueName2	Mas	1	0.610374932904961
269.753586734219	0.5	target	Att	Val	Word	Mas	1	0.610374932904961
270.270467224605	3.91843392127157	Jitter2	Att	Val	Word	Mas	1	0.610374932904961
274.206723109526	0.5	cue	Att	Val	CueFace2	Fem	1	0.756913766399521
274.723719718742	4.62018526645443	Jitter1	Att	Val	CueFace2	Fem	1	0.756913766399521
279.326908375981	0.5	target	Att	Val	Face	Fem	1	0.756913766399521
279.843773213093	5.31837193430692	Jitter2	Att	Val	Face	Fem	1	0.756913766399521
285.180953267294	0.5	cue	Att	Val	CueName2	Fem	0	0.780795823820881
285.697974067933	6.03790112936804	Jitter1	Att	Val	CueName2	Fem	0	0.780795823820881
291.718854396662	0.5	target	Att	Val	Word	Fem	0	0.780795823820881
292.235697603797	3.2183910597596	Jitter2	Att	Val	Word	Fem	0	0.780795823820881
295.471464366603	0.5	cue	Att	Inval	CueFace2	Mas	1	0.692157880626837
295.988463537264	3.23591048831986	Jitter1	Att	Inval	CueFace2	Mas	1	0.692157880626837
299.207374854923	0.5	target	Att	Inval	Word	Mas	1	0.692157880626837
299.724228307836	5.31832326685435	Jitter2	Att	Inval	Word	Mas	1	0.692157880626837
305.061315011602	0.5	cue	Att	Inval	CueFace2	Fem	1	0.737529606032695
305.578417778475	3.93650804492972	Jitter1	Att	Inval	CueFace2	Fem	1	0.737529606032695
309.497823056532	0.5	target	Att	Inval	Word	Fem	1	0.737529606032695
310.014699847054	3.21840045172394	Jitter2	Att	Inval	Word	Fem	1	0.737529606032695
313.25045921013	0.5	cue	Att	Inval	CueName2	Fem	0	0.607643578941861
313.767470903411	6.02116066463168	Jitter1	Att	Inval	CueName2	Fem	0	0.607643578941861
319.771619874762	0.5	target	Att	Inval	Face	Fem	0	0.607643578941861
320.288471050835	3.91843107522072	Jitter2	Att	Inval	Face	Fem	0	0.607643578941861
324.224700467492	0.5	cue	Att	Val	CueFace2	Mas	1	0.663050191225921
324.741754851519	2.53536558363157	Jitter1	Att	Val	CueFace2	Mas	1	0.663050191225921
327.260066051123	0.5	target	Att	Val	Face	Mas	1	0.663050191225921
327.777027938531	4.61830658900362	Jitter2	Att	Val	Face	Mas	1	0.663050191225921
332.413740500597	0.5	cue	Att	Inval	CueFace2	Fem	1	0.884449240988033
332.930698688142	4.63682412721573	Jitter1	Att	Inval	CueFace2	Fem	1	0.884449240988033
337.550564627812	0.5	target	Att	Inval	Word	Fem	1	0.884449240988033
338.067491508811	3.91849226528939	Jitter2	Att	Inval	Word	Fem	1	0.884449240988033
342.003683642215	0.5	cue	Att	Inval	CueName2	Mas	1	0.674373769439626
342.520721803758	5.32073899389798	Jitter1	Att	Inval	CueName2	Mas	1	0.674373769439626
347.824422636113	0.5	target	Att	Inval	Face	Mas	1	0.674373769439626
348.34129003467	6.01826110912771	Jitter2	Att	Inval	Face	Mas	1	0.674373769439626
354.362322342458	0.5	cue	Att	Val	CueName2	Mas	1	0.7160015163754
354.879319236279	3.93637883426891	Jitter1	Att	Val	CueName2	Mas	1	0.7160015163754
358.798701176727	0.5	target	Att	Val	Word	Mas	1	0.7160015163754
359.315563737	4.61854167271485	Jitter2	Att	Val	Word	Mas	1	0.7160015163754
363.952258368952	0.5	cue	Att	Inval	CueName2	Fem	0	0.718442288656661
364.469309337719	3.91979746371362	Jitter1	Att	Inval	CueName2	Fem	0	0.718442288656661
368.372055832666	0.5	target	Att	Inval	Face	Fem	0	0.718442288656661
368.888848949324	4.61843523045354	Jitter2	Att	Inval	Face	Fem	0	0.718442288656661
373.525592817936	0.5	cue	Att	Val	CueFace2	Mas	1	0.665100200874804
374.042590280967	3.91972346642069	Jitter1	Att	Val	CueFace2	Mas	1	0.665100200874804
377.945316284357	0.5	target	Att	Val	Face	Mas	1	0.665100200874804
378.462173437134	6.01836015166009	Jitter2	Att	Val	Face	Mas	1	0.665100200874804
384.499842613448	0.5	cue	Att	Inval	CueName2	Mas	1	0.605165808012316
385.016873659866	6.02123352350645	Jitter1	Att	Inval	CueName2	Mas	1	0.605165808012316
391.021076136954	0.5	target	Att	Inval	Face	Mas	1	0.605165808012316
391.53789316043	3.21849664820729	Jitter2	Att	Inval	Face	Mas	1	0.605165808012316
394.773665330731	0.5	cue	Att	Inval	CueName2	Mas	1	0.560736125080439
395.290662509156	3.91972062036984	Jitter1	Att	Inval	CueName2	Mas	1	0.560736125080439
399.193385951101	0.5	target	Att	Inval	Face	Mas	1	0.560736125080439
399.710249649794	5.31850996771936	Jitter2	Att	Inval	Face	Mas	1	0.560736125080439
405.047395551397	0.5	cue	Att	Inval	CueFace2	Mas	1	0.887077283343388
405.564478680526	2.53547060286655	Jitter1	Att	Inval	CueFace2	Mas	1	0.887077283343388
408.082866154264	0.5	target	Att	Inval	Word	Mas	1	0.887077283343388
408.599778805012	3.91842054483641	Jitter2	Att	Inval	Word	Mas	1	0.887077283343388
412.535958415798	0.5	cue	Att	Val	CueFace2	Fem	1	0.766535122245841
413.052996008131	2.53543445803552	Jitter1	Att	Val	CueFace2	Fem	1	0.766535122245841
415.571392873833	0.5	target	Att	Val	Face	Fem	1	0.766535122245841
416.088279625528	6.01843727960841	Jitter2	Att	Val	Face	Fem	1	0.766535122245841
422.109300264512	0.5	cue	Att	Val	CueFace2	Mas	1	0.547474102369961
422.626295735308	4.63691548541283	Jitter1	Att	Val	CueFace2	Mas	1	0.547474102369961
427.246215749925	0.5	target	Att	Val	Face	Mas	1	0.547474102369961
427.763045580625	2.51835161351119	Jitter2	Att	Val	Face	Mas	1	0.547474102369961
430.298270854002	0.5	cue	Att	Inval	CueFace2	Mas	1	0.558379311267345
430.815304461867	4.63693683078782	Jitter1	Att	Inval	CueFace2	Mas	1	0.558379311267345
435.43520768479	0.5	target	Att	Inval	Word	Mas	1	0.558379311267345
435.952059999283	4.61839937022523	Jitter2	Att	Inval	Word	Mas	1	0.558379311267345
440.588739262566	0.5	cue	Att	Inval	CueName2	Mas	1	0.892801827847507
441.105772016614	3.23593781039563	Jitter1	Att	Inval	CueName2	Mas	1	0.892801827847507
444.324677072962	0.5	target	Att	Inval	Face	Mas	1	0.892801827847507
444.841555571114	2.51838946597309	Jitter2	Att	Inval	Face	Mas	1	0.892801827847507
447.376811012618	0.5	cue	Att	Inval	CueFace2	Fem	1	0.814602341388309
447.893824698134	6.03785673099264	Jitter1	Att	Inval	CueFace2	Fem	1	0.814602341388309
453.914667743611	0.5	target	Att	Inval	Word	Fem	1	0.814602341388309
454.431541688084	4.6182940663839	Jitter2	Att	Inval	Word	Fem	1	0.814602341388309
459.068239166085	0.5	cue	Att	Val	CueName2	Fem	0	NaN
459.58525911291	5.3373499633708	Jitter1	Att	Val	CueName2	Fem	0	NaN
464.905589129456	0.5	target	Att	Val	Word	Fem	0	NaN
465.422482142461	4.6182829667905	Jitter2	Att	Val	Word	Fem	0	NaN
