onset	duration	section	btype	validity	stim	gender	accuracy	reaction_time
10.0783282668635	0.5	cue	Exp	Inval	CueFace2	Fem	1	0.640471957292903
10.595390000577	4.63692447937501	Jitter1	Exp	Inval	CueFace2	Fem	1	0.640471957292903
15.2152527462385	0.5	target	Exp	Inval	Word	Fem	1	0.640471957292903
15.7321494081734	2.51846968214886	Jitter2	Exp	Inval	Word	Fem	1	0.640471957292903
18.2673656223196	0.5	cue	Exp	Val	CueName1	Mas	1	0.722342721459427
18.7843886495502	6.03792139908182	Jitter1	Exp	Val	CueName1	Mas	1	0.722342721459427
24.8052870214015	0.5	target	Exp	Val	Word	Mas	1	0.722342721459427
25.3222576810294	6.01844933278335	Jitter2	Exp	Val	Word	Mas	1	0.722342721459427
31.3598690013132	0.5	cue	Exp	Val	CueFace2	Mas	1	0.706868665194634
31.8769210584069	5.32077473877871	Jitter1	Exp	Val	CueFace2	Mas	1	0.706868665194634
37.1806437400919	0.5	target	Exp	Val	Face	Mas	1	0.706868665194634
37.6974977110513	3.21844432370926	Jitter2	Exp	Val	Face	Mas	1	0.706868665194634
40.9332253346474	0.5	cue	Exp	Inval	CueName1	Mas	1	0.792978928016964
41.450300444867	6.02121898109181	Jitter1	Exp	Inval	CueName1	Mas	1	0.792978928016964
47.4544443157392	0.5	target	Exp	Inval	Face	Mas	1	0.792978928016964
47.9713825302242	6.01842798729558	Jitter2	Exp	Inval	Face	Mas	1	0.792978928016964
54.0090661405593	0.5	cue	Exp	Val	CueFace2	Fem	1	0.769858633095282
54.5260877447581	3.93639001680276	Jitter1	Exp	Val	CueFace2	Fem	1	0.769858633095282
58.4454561573621	0.5	target	Exp	Val	Face	Fem	1	0.769858633095282
58.9623784338837	6.01827686123215	Jitter2	Exp	Val	Face	Fem	1	0.769858633095282
64.9999780852959	0.5	cue	Exp	Inval	CueFace2	Mas	1	0.945695653746952
65.5170822253822	5.33750874809266	Jitter1	Exp	Inval	CueFace2	Mas	1	0.945695653746952
70.8374868333885	0.5	target	Exp	Inval	Word	Mas	1	0.945695653746952
71.3543686957855	5.31839044769731	Jitter2	Exp	Inval	Word	Mas	1	0.945695653746952
76.691537481398	0.5	cue	Exp	Inval	CueName1	Fem	0	0.704177141371474
77.2085348940382	2.53541529640279	Jitter1	Exp	Inval	CueName1	Fem	0	0.704177141371474
79.7269527778008	0.5	target	Exp	Inval	Face	Fem	0	0.704177141371474
80.2439131915962	3.9184807248821	Jitter2	Exp	Inval	Face	Fem	0	0.704177141371474
84.180151655426	0.5	cue	Exp	Val	CueFace2	Fem	1	0.910146307673131
84.6971812286065	5.32074314745842	Jitter1	Exp	Val	CueFace2	Fem	1	0.910146307673131
90.0008948028844	0.5	target	Exp	Val	Face	Fem	1	0.910146307673131
90.5177607273181	2.51853798771117	Jitter2	Exp	Val	Face	Fem	1	0.910146307673131
93.0529513268775	0.5	cue	Exp	Val	CueFace2	Mas	1	0.709541120377253
93.5700002532976	3.9364785294274	Jitter1	Exp	Val	CueFace2	Mas	1	0.709541120377253
97.4894298563049	0.5	target	Exp	Val	Face	Mas	1	0.709541120377253
98.0063080188156	4.61844056690097	Jitter2	Exp	Val	Face	Mas	1	0.709541120377253
102.642994140235	0.5	cue	Exp	Val	CueFace2	Fem	1	0.802983700868936
103.160040220591	4.63689658793737	Jitter1	Exp	Val	CueFace2	Fem	1	0.802983700868936
107.779890728172	0.5	target	Exp	Val	Face	Fem	1	0.802983700868936
108.296849718936	4.61846418924324	Jitter2	Exp	Val	Face	Fem	1	0.802983700868936
112.933514779474	0.5	cue	Exp	Val	CueFace2	Mas	1	0.749877832651691
113.450582774531	2.53541159652013	Jitter1	Exp	Val	CueFace2	Mas	1	0.749877832651691
115.968926375994	0.5	target	Exp	Val	Face	Mas	1	0.749877832651691
116.485883089903	4.618453089588	Jitter2	Exp	Val	Face	Mas	1	0.749877832651691
121.122620155889	0.5	cue	Exp	Val	CueFace2	Fem	1	0.948164899877156
121.639612445615	3.23591048328308	Jitter1	Exp	Val	CueFace2	Fem	1	0.948164899877156
124.858530639172	0.5	target	Exp	Val	Face	Fem	1	0.948164899877156
125.375449215808	5.31843797698457	Jitter2	Exp	Val	Face	Fem	1	0.948164899877156
130.712598363567	0.5	cue	Exp	Val	CueName1	Fem	1	0.604108067371271
131.229695673097	6.03796152860014	Jitter1	Exp	Val	CueName1	Fem	1	0.604108067371271
137.250559892167	0.5	target	Exp	Val	Word	Fem	1	0.604108067371271
137.767451715794	5.31842118519489	Jitter2	Exp	Val	Word	Fem	1	0.604108067371271
143.104654369577	0.5	cue	Exp	Val	CueName1	Fem	1	0.674436614288425
143.621642674811	2.53545428749567	Jitter1	Exp	Val	CueName1	Fem	1	0.674436614288425
146.140108657073	0.5	target	Exp	Val	Word	Fem	1	0.674436614288425
146.656989381045	3.21825420655659	Jitter2	Exp	Val	Word	Fem	1	0.674436614288425
149.892688828597	0.5	cue	Exp	Val	CueFace2	Fem	1	0.744593543473457
150.40976678488	6.02123264220427	Jitter1	Exp	Val	CueFace2	Fem	1	0.744593543473457
156.413921470801	0.5	target	Exp	Val	Face	Fem	1	0.744593543473457
156.930831509242	3.21847278435962	Jitter2	Exp	Val	Face	Fem	1	0.744593543473457
160.166485135142	0.5	cue	Exp	Val	CueName1	Fem	1	0.854815954928199
160.683600090277	4.63704714478445	Jitter1	Exp	Val	CueName1	Fem	1	0.854815954928199
165.303532279926	0.5	target	Exp	Val	Word	Fem	1	0.854815954928199
165.820376858872	6.0182842610011	Jitter2	Exp	Val	Word	Fem	1	0.854815954928199
171.857979071745	0.5	cue	Exp	Val	CueName1	Mas	1	1.63623132020803
172.375082642615	3.23604083306418	Jitter1	Exp	Val	CueName1	Mas	1	1.63623132020803
175.594019904809	0.5	target	Exp	Val	Word	Mas	1	1.63623132020803
176.110900913387	3.91826641617445	Jitter2	Exp	Val	Word	Mas	1	1.63623132020803
180.047046595493	0.5	cue	Exp	Val	CueFace2	Mas	1	0.853795071354398
180.564119998075	6.02133709279587	Jitter1	Exp	Val	CueFace2	Mas	1	0.853795071354398
186.568383688289	0.5	target	Exp	Val	Face	Mas	1	0.853795071354398
187.085236805429	3.91843433401664	Jitter2	Exp	Val	Face	Mas	1	0.853795071354398
191.021456200622	0.5	cue	Exp	Val	CueFace2	Fem	1	0.933267741020245
191.538432267775	2.53538797417787	Jitter1	Exp	Val	CueFace2	Fem	1	0.933267741020245
194.0568441748	0.5	target	Exp	Val	Face	Fem	1	0.933267741020245
194.573782389289	3.91846251006427	Jitter2	Exp	Val	Face	Fem	1	0.933267741020245
198.510036221869	0.5	cue	Exp	Val	CueName1	Fem	1	0.58213786737906
199.027058395281	6.03786817766377	Jitter1	Exp	Val	CueName1	Fem	1	0.58213786737906
205.047904399533	0.5	target	Exp	Val	Word	Fem	1	0.58213786737906
205.564844606266	5.31845277651883	Jitter2	Exp	Val	Word	Fem	1	0.58213786737906
210.901969847077	0.5	cue	Exp	Val	CueName1	Mas	1	0.668423163213447
211.419054064707	2.53552600834155	Jitter1	Exp	Val	CueName1	Mas	1	0.668423163213447
213.937495855418	0.5	target	Exp	Val	Word	Mas	1	0.668423163213447
214.45437316411	4.6185342024437	Jitter2	Exp	Val	Word	Mas	1	0.668423163213447
219.091056154855	0.5	cue	Exp	Val	CueFace2	Mas	1	0.654398038721411
219.608125003735	3.93639229365363	Jitter1	Exp	Val	CueFace2	Mas	1	0.654398038721411
223.527448448509	0.5	target	Exp	Val	Face	Mas	1	0.654398038721411
224.044397478043	2.51842841420512	Jitter2	Exp	Val	Face	Mas	1	0.654398038721411
226.579572139639	0.5	cue	Exp	Val	CueName1	Fem	1	1.16568652926071
227.096612812471	3.93648393695185	Jitter1	Exp	Val	CueName1	Fem	1	1.16568652926071
231.016056076591	0.5	target	Exp	Val	Word	Fem	1	1.16568652926071
231.532962130539	3.91849296296277	Jitter2	Exp	Val	Word	Fem	1	1.16568652926071
235.469131719594	0.5	cue	Exp	Val	CueName1	Fem	1	0.664550522353238
235.986234436648	3.23602489510085	Jitter1	Exp	Val	CueName1	Fem	1	0.664550522353238
239.205156614695	0.5	target	Exp	Val	Word	Fem	1	0.664550522353238
239.722015993179	4.61844910509535	Jitter2	Exp	Val	Word	Fem	1	0.664550522353238
244.358699553137	0.5	cue	Exp	Inval	CueName1	Fem	1	0.666440878831054
244.875760433035	3.93647198347753	Jitter1	Exp	Inval	CueName1	Fem	1	0.666440878831054
248.795171536614	0.5	target	Exp	Inval	Face	Fem	1	0.666440878831054
249.312050552948	4.61838478402569	Jitter2	Exp	Inval	Face	Fem	1	0.666440878831054
253.948776803885	0.5	cue	Exp	Val	CueFace2	Mas	1	0.544500932515803
254.465794423591	4.62025279888985	Jitter1	Exp	Val	CueFace2	Mas	1	0.544500932515803
259.069029602775	0.5	target	Exp	Val	Face	Mas	1	0.544500932515803
259.585900934733	6.01844335604619	Jitter2	Exp	Val	Face	Mas	1	0.544500932515803
265.623555230599	0.5	cue	Exp	Val	CueName1	Fem	1	0.520461643154704
266.140590780513	5.33742877365876	Jitter1	Exp	Val	CueName1	Fem	1	0.520461643154704
271.460984004258	0.5	target	Exp	Val	Word	Fem	1	0.520461643154704
271.977889488997	2.51843552936771	Jitter2	Exp	Val	Word	Fem	1	0.520461643154704
274.513149532548	0.5	cue	Exp	Val	CueName1	Fem	1	0.735806601900549
275.030115353868	3.93642530800935	Jitter1	Exp	Val	CueName1	Fem	1	0.735806601900549
278.949574840557	0.5	target	Exp	Val	Word	Fem	1	0.735806601900549
279.466458979805	2.51843723700586	Jitter2	Exp	Val	Word	Fem	1	0.735806601900549
282.001682309114	0.5	cue	Exp	Val	CueName1	Mas	0	1.33419037842032
282.518707613195	5.33737669066977	Jitter1	Exp	Val	CueName1	Mas	0	1.33419037842032
287.839058999783	0.5	target	Exp	Val	Word	Mas	0	1.33419037842032
288.356001198761	5.31843826159093	Jitter2	Exp	Val	Word	Mas	0	1.33419037842032
293.693177668749	0.5	cue	Exp	Val	CueFace2	Fem	1	0.774794848504826
294.21020268822	6.02119962784855	Jitter1	Exp	Val	CueFace2	Fem	1	0.774794848504826
300.214377296597	0.5	target	Exp	Val	Face	Fem	1	0.774794848504826
300.731337425783	3.21843806236575	Jitter2	Exp	Val	Face	Fem	1	0.774794848504826
303.967022073797	0.5	cue	Exp	Val	CueName1	Mas	0	0.449572990615707
304.484063315842	3.93646543752402	Jitter1	Exp	Val	CueName1	Mas	0	0.449572990615707
308.403487511321	0.5	target	Exp	Val	Word	Mas	0	0.449572990615707
308.920474678129	3.21827412901257	Jitter2	Exp	Val	Word	Mas	0	0.449572990615707
312.156112081459	0.5	cue	Exp	Inval	CueFace2	Fem	1	1.1814332385693
312.673142508458	2.5354656717609	Jitter1	Exp	Inval	CueFace2	Fem	1	1.1814332385693
315.191577753219	0.5	target	Exp	Inval	Word	Fem	1	1.1814332385693
315.708447092929	6.01827771505123	Jitter2	Exp	Inval	Word	Fem	1	1.1814332385693
321.746111350021	0.5	cue	Exp	Val	CueName1	Mas	1	0.793850677775481
322.263174222164	4.63697997764757	Jitter1	Exp	Val	CueName1	Mas	1	0.793850677775481
326.883091327669	0.5	target	Exp	Val	Word	Mas	1	0.793850677775481
327.399949567724	2.51833534787511	Jitter2	Exp	Val	Word	Mas	1	0.793850677775481
329.935140167287	0.5	cue	Exp	Val	CueFace2	Mas	1	0.637719527680019
330.452189378313	3.23599472680871	Jitter1	Exp	Val	CueFace2	Mas	1	0.637719527680019
333.671134894095	0.5	target	Exp	Val	Face	Mas	1	0.637719527680019
334.18802842536	5.31836938681226	Jitter2	Exp	Val	Face	Mas	1	0.637719527680019
339.525159927514	0.5	cue	Exp	Val	CueFace2	Mas	1	0.871628231030627
340.042234753131	3.23596455852021	Jitter1	Exp	Val	CueFace2	Mas	1	0.871628231030627
343.261124486035	0.5	target	Exp	Val	Face	Mas	1	0.871628231030627
343.778060992881	2.51835157044479	Jitter2	Exp	Val	Face	Mas	1	0.871628231030627
346.31322967774	0.5	cue	Exp	Val	CueName1	Mas	1	0.711967106319207
346.830357155563	2.53551433947359	Jitter1	Exp	Val	CueName1	Mas	1	0.711967106319207
349.348744017214	0.5	target	Exp	Val	Word	Mas	1	0.711967106319207
349.86564978656	6.01837647351203	Jitter2	Exp	Val	Word	Mas	1	0.711967106319207
355.903307497701	0.5	cue	Exp	Inval	CueFace2	Fem	1	0.600862983876141
356.420314871571	3.93646429910223	Jitter1	Exp	Inval	CueFace2	Fem	1	0.600862983876141
360.339771796804	0.5	target	Exp	Inval	Word	Fem	1	0.600862983876141
360.856662197395	3.21853710543292	Jitter2	Exp	Inval	Word	Fem	1	0.600862983876141
364.09241031266	0.5	cue	Exp	Val	CueName1	Mas	1	0.624334198630095
364.609401748563	3.23587206140292	Jitter1	Exp	Val	CueName1	Mas	1	0.624334198630095
367.828282374063	0.5	target	Exp	Val	Word	Mas	1	0.624334198630095
368.345228557529	3.21860455717615	Jitter2	Exp	Val	Word	Mas	1	0.624334198630095
371.58093967395	0.5	cue	Exp	Inval	CueName1	Fem	1	0.687678217043867
372.098011084283	3.23587604589193	Jitter1	Exp	Inval	CueName1	Fem	1	0.687678217043867
375.316815719842	0.5	target	Exp	Inval	Face	Fem	1	0.687678217043867
375.833795202274	5.31847611425474	Jitter2	Exp	Inval	Face	Fem	1	0.687678217043867
381.170969110801	0.5	cue	Exp	Inval	CueName1	Mas	1	0.593118271368439
381.687971077146	4.62028809010008	Jitter1	Exp	Inval	CueName1	Mas	1	0.593118271368439
386.291257200901	0.5	target	Exp	Inval	Face	Mas	1	0.593118271368439
386.808131948135	3.21837374128881	Jitter2	Exp	Inval	Face	Mas	1	0.593118271368439
390.043771628316	0.5	cue	Exp	Val	CueName1	Fem	1	0.723080136940553
390.560915613314	5.33747772598144	Jitter1	Exp	Val	CueName1	Fem	1	0.723080136940553
395.881249354297	0.5	target	Exp	Val	Word	Fem	1	0.723080136940553
396.398162523412	4.61832017834604	Jitter2	Exp	Val	Word	Fem	1	0.723080136940553
401.034800261725	0.5	cue	Exp	Val	CueFace2	Mas	1	0.953139821776858
401.551912655399	4.62030089738983	Jitter1	Exp	Val	CueFace2	Mas	1	0.953139821776858
406.155101159115	0.5	target	Exp	Val	Face	Mas	1	0.953139821776858
406.672028558554	6.01842314898386	Jitter2	Exp	Val	Face	Mas	1	0.953139821776858
412.709645001753	0.5	cue	Exp	Val	CueName1	Mas	1	0.669454577226134
413.226752272512	4.63698424674658	Jitter1	Exp	Val	CueName1	Mas	1	0.669454577226134
417.846629248499	0.5	target	Exp	Val	Word	Mas	1	0.669454577226134
418.363514810779	3.91831935298978	Jitter2	Exp	Val	Word	Mas	1	0.669454577226134
422.29974929012	0.5	cue	Exp	Val	CueFace2	Fem	1	0.811543526440801
422.816737879959	5.32069903344745	Jitter1	Exp	Val	CueFace2	Fem	1	0.811543526440801
428.120448323567	0.5	target	Exp	Val	Face	Fem	1	0.811543526440801
428.63736974627	5.31856804215931	Jitter2	Exp	Val	Face	Fem	1	0.811543526440801
433.974536539634	0.5	cue	Exp	Inval	CueFace2	Mas	1	0.717404229195381
434.491609657609	3.23595345886497	Jitter1	Exp	Inval	CueFace2	Mas	1	0.717404229195381
437.710489998499	0.5	target	Exp	Inval	Word	Mas	1	0.717404229195381
438.227395483238	4.61853676390456	Jitter2	Exp	Inval	Word	Mas	1	0.717404229195381
442.864119172715	0.5	cue	Exp	Val	CueFace2	Fem	1	0.760325168634154
443.381140492307	2.53541245034285	Jitter1	Exp	Val	CueFace2	Fem	1	0.760325168634154
445.899531623058	0.5	target	Exp	Val	Face	Fem	1	0.760325168634154
446.416449061267	3.91847531735766	Jitter2	Exp	Val	Face	Fem	1	0.760325168634154
450.35261466583	0.5	cue	Exp	Inval	CueName1	Mas	1	0.742413742169447
450.869708844686	5.32076933125791	Jitter1	Exp	Inval	CueName1	Mas	1	0.742413742169447
456.173383997088	0.5	target	Exp	Inval	Face	Mas	1	0.742413742169447
456.690294604741	2.51850611178452	Jitter2	Exp	Inval	Face	Mas	1	0.742413742169447
459.225421452444	0.5	cue	Exp	Inval	CueFace2	Mas	1	0.712310341776174
459.742553199361	6.03798543554512	Jitter1	Exp	Inval	CueFace2	Mas	1	0.712310341776174
465.763406887989	0.5	target	Exp	Inval	Word	Mas	1	0.712310341776174
466.280328879904	3.91853309248108	Jitter2	Exp	Inval	Word	Mas	1	0.712310341776174
