onset	duration	section	btype	validity	stim	gender	accuracy	reaction_time
10.0627904587382	0.5	cue	Att	Val	CueFace2	Fem	1	0.576019396503398
10.5798245856204	4.6369281792613	Jitter1	Att	Val	CueFace2	Fem	1	0.576019396503398
15.1997186379995	0.5	target	Att	Val	Face	Fem	1	0.576019396503398
15.7166340839649	2.51837576199978	Jitter2	Att	Val	Face	Fem	1	0.576019396503398
18.2518522903592	0.5	cue	Att	Val	CueFace2	Mas	1	0.586905026520981
18.768921708448	4.6369182180315	Jitter1	Att	Val	CueFace2	Mas	1	0.586905026520981
23.3887705083907	0.5	target	Att	Val	Face	Mas	1	0.586905026520981
23.9056890850297	4.61844056690097	Jitter2	Att	Val	Face	Mas	1	0.586905026520981
28.5423908598059	0.5	cue	Att	Inval	CueFace2	Mas	1	0.680263363483391
29.0594369401624	4.63690626456082	Jitter1	Att	Inval	CueFace2	Mas	1	0.680263363483391
33.6792971243667	0.5	target	Att	Inval	Word	Mas	1	0.680263363483391
34.1962117165131	4.61837966110761	Jitter2	Att	Inval	Word	Mas	1	0.680263363483391
38.8329658588882	0.5	cue	Att	Inval	CueName1	Mas	1	1.67378856525102
39.3499578640076	5.32066772672988	Jitter1	Att	Inval	CueName1	Mas	1	1.67378856525102
44.6536335856181	0.5	target	Att	Inval	Face	Mas	1	1.67378856525102
45.1705476085517	5.31826550543337	Jitter2	Att	Inval	Face	Mas	1	1.67378856525102
50.5077206632595	0.5	cue	Att	Val	CueFace2	Fem	1	0.968151107845188
51.0246890460367	2.53545514131838	Jitter1	Att	Val	CueFace2	Fem	1	0.968151107845188
53.5431758045779	0.5	target	Att	Val	Face	Fem	1	0.968151107845188
54.0600903967243	6.01832410591305	Jitter2	Att	Val	Face	Fem	1	0.968151107845188
60.0977321699029	0.5	cue	Att	Val	CueName1	Mas	1	1.06849283488918
60.6147944728291	4.63698908505467	Jitter1	Att	Val	CueName1	Mas	1	1.06849283488918
65.2347212549575	0.5	target	Att	Val	Word	Mas	1	1.06849283488918
65.7515951483729	3.91845169501539	Jitter2	Att	Val	Word	Mas	1	1.06849283488918
69.6877880751599	0.5	cue	Att	Val	CueName1	Mas	1	0.751498382152931
70.2048626161668	3.2359469129151	Jitter1	Att	Val	CueName1	Mas	1	0.751498382152931
73.423734988075	0.5	target	Att	Val	Word	Mas	1	0.751498382152931
73.940649295615	6.0183733428421	Jitter2	Att	Val	Word	Mas	1	0.751498382152931
79.978311275856	0.5	cue	Att	Val	CueFace2	Mas	1	0.703975924563565
80.4953374337565	5.32078128473222	Jitter1	Att	Val	CueFace2	Mas	1	0.703975924563565
85.7990925605882	0.5	target	Att	Val	Face	Mas	1	0.703975924563565
86.3159681616416	5.31841435463866	Jitter2	Att	Val	Face	Mas	1	0.703975924563565
91.6531662617199	0.5	cue	Att	Val	CueName1	Mas	1	0.757411936341668
92.1701779046889	3.93644010754724	Jitter1	Att	Val	CueName1	Mas	1	0.757411936341668
96.0896063692671	0.5	target	Att	Val	Word	Mas	1	0.757411936341668
96.6064913623377	2.5184289834142	Jitter2	Att	Val	Word	Mas	1	0.757411936341668
99.141745144545	0.5	cue	Att	Val	CueFace2	Mas	1	0.879994524173526
99.6587086890104	6.02116547506375	Jitter1	Att	Val	CueFace2	Mas	1	0.879994524173526
105.662910619609	0.5	target	Att	Val	Face	Mas	1	0.879994524173526
106.179875017897	2.51834616292035	Jitter2	Att	Val	Face	Mas	1	0.879994524173526
108.715014957495	0.5	cue	Att	Val	CueName1	Mas	1	0.646268822809361
109.23208579862	5.33750561742272	Jitter1	Att	Val	CueName1	Mas	1	0.646268822809361
114.552520574918	0.5	target	Att	Val	Word	Mas	1	0.646268822809361
115.069387922384	5.31830364270718	Jitter2	Att	Val	Word	Mas	1	0.646268822809361
120.406605944918	0.5	cue	Att	Val	CueName1	Mas	1	0.734215082266019
120.923565504894	6.03790033820042	Jitter1	Att	Val	CueName1	Mas	1	0.734215082266019
126.944506283118	0.5	target	Att	Val	Word	Mas	1	0.734215082266019
127.461379891924	4.61827492590965	Jitter2	Att	Val	Word	Mas	1	0.734215082266019
132.098093904784	0.5	cue	Att	Inval	CueFace2	Fem	0	1.25062079796044
132.615132016155	6.03787216215278	Jitter1	Att	Inval	CueFace2	Fem	0	1.25062079796044
138.635966066937	0.5	target	Att	Inval	Word	Fem	0	1.25062079796044
139.152865859542	6.01845445570143	Jitter2	Att	Inval	Word	Fem	0	1.25062079796044
145.190543493143	0.5	cue	Att	Inval	CueName1	Fem	1	0.902994715139357
145.70761490348	4.63692732544223	Jitter1	Att	Inval	CueName1	Fem	1	0.902994715139357
150.327470818585	0.5	target	Att	Inval	Face	Fem	1	0.902994715139357
150.84438711837	5.31844309989901	Jitter2	Att	Inval	Face	Fem	1	0.902994715139357
156.181529435573	0.5	cue	Att	Val	CueName1	Fem	1	1.69338343926211
156.698594584566	2.53553938484401	Jitter1	Att	Val	CueName1	Fem	1	1.69338343926211
159.217068820417	0.5	target	Att	Val	Word	Fem	1	1.69338343926211
159.733931898787	3.21829518989034	Jitter2	Att	Val	Word	Fem	1	1.69338343926211
162.969629923304	0.5	cue	Att	Inval	CueFace2	Mas	1	0.751206660475873
163.486695072297	5.33745524206824	Jitter1	Att	Inval	CueFace2	Mas	1	0.751206660475873
168.807085165372	0.5	target	Att	Inval	Word	Mas	1	0.751206660475873
169.323968450801	3.91842693424769	Jitter2	Att	Inval	Word	Mas	1	0.751206660475873
173.260207199237	0.5	cue	Att	Inval	CueName1	Mas	1	0.640852760810958
173.777178997294	6.02119336650503	Jitter1	Att	Inval	CueName1	Mas	1	0.640852760810958
179.781400565742	0.5	target	Att	Inval	Face	Mas	1	0.640852760810958
180.298300642957	6.01844278683348	Jitter2	Att	Inval	Face	Mas	1	0.640852760810958
186.335933593331	0.5	cue	Att	Val	CueName1	Fem	1	0.637220043245179
186.853024926124	4.63699847707176	Jitter1	Att	Val	CueName1	Fem	1	0.637220043245179
191.472932070403	0.5	target	Att	Val	Word	Fem	1	0.637220043245179
191.989801979325	2.51838942311224	Jitter2	Att	Val	Word	Fem	1	0.637220043245179
194.524975787102	0.5	cue	Att	Inval	CueName1	Mas	1	0.780600252219301
195.042047482046	3.93647340650932	Jitter1	Att	Inval	CueName1	Mas	1	0.780600252219301
198.961449193612	0.5	target	Att	Inval	Face	Mas	1	0.780600252219301
199.478368054857	3.21844916201735	Jitter2	Att	Inval	Face	Mas	1	0.780600252219301
202.714057825786	0.5	cue	Att	Val	CueName1	Fem	1	1.39843033814395
203.231189572703	5.33746150340812	Jitter1	Att	Val	CueName1	Fem	1	1.39843033814395
208.551519329194	0.5	target	Att	Val	Word	Fem	1	1.39843033814395
209.068403468445	5.31843427709828	Jitter2	Att	Val	Word	Fem	1	1.39843033814395
214.405577946185	0.5	cue	Att	Val	CueName1	Fem	1	1.05442160413804
214.922585320055	6.03784569374693	Jitter1	Att	Val	CueName1	Fem	1	1.05442160413804
220.943423639932	0.5	target	Att	Val	Word	Fem	1	1.05442160413804
221.460397145627	6.01844221761712	Jitter2	Att	Val	Word	Fem	1	1.05442160413804
227.4980343651	0.5	cue	Att	Inval	CueFace2	Mas	1	1.06782941710117
228.015114313632	3.23592528282097	Jitter1	Att	Inval	CueFace2	Mas	1	1.06782941710117
231.233959647921	0.5	target	Att	Inval	Word	Mas	1	1.06782941710117
231.750919492504	3.21842696271051	Jitter2	Att	Inval	Word	Mas	1	1.06782941710117
234.98657340301	0.5	cue	Att	Inval	CueName1	Fem	0	1.62361898245581
235.503625175497	2.53552031621075	Jitter1	Att	Inval	CueName1	Fem	0	1.62361898245581
238.022093719221	0.5	target	Att	Inval	Face	Fem	0	1.62361898245581
238.538994365645	4.6184835424865	Jitter2	Att	Inval	Face	Fem	0	1.62361898245581
243.175675648756	0.5	cue	Att	Val	CueFace2	Mas	1	0.909924599192891
243.693357540069	3.23603542554338	Jitter1	Att	Val	CueFace2	Mas	1	0.909924599192891
246.911711074299	0.5	target	Att	Val	Face	Mas	1	0.909924599192891
247.428561060766	6.01823018576397	Jitter2	Att	Val	Face	Mas	1	0.909924599192891
253.466197141814	0.5	cue	Att	Val	CueName1	Fem	1	0.582956395719521
253.983273105852	3.93639713196171	Jitter1	Att	Val	CueName1	Fem	1	0.582956395719521
257.902594273775	0.5	target	Att	Val	Word	Fem	1	0.582956395719521
258.419554972177	4.61843743623103	Jitter2	Att	Val	Word	Fem	1	0.582956395719521
263.056272969527	0.5	cue	Att	Val	CueName1	Fem	1	1.56520064901633
263.57328005879	3.23595943560213	Jitter1	Att	Val	CueName1	Fem	1	1.56520064901633
266.792232405129	0.5	target	Att	Val	Word	Fem	1	1.56520064901633
267.309101175626	3.91842750346405	Jitter2	Att	Val	Word	Fem	1	1.56520064901633
271.245325978343	0.5	cue	Att	Inval	CueFace2	Fem	1	1.49260407277689
271.762266185076	2.53545542592474	Jitter1	Att	Inval	CueFace2	Fem	1	1.49260407277689
274.280781404268	0.5	target	Att	Inval	Word	Fem	1	1.49260407277689
274.79766440509	3.91843291098485	Jitter2	Att	Inval	Word	Fem	1	1.49260407277689
278.733830294259	0.5	cue	Att	Inval	CueFace2	Mas	1	0.898927688031108
279.250942403327	3.93651894355207	Jitter1	Att	Inval	CueFace2	Mas	1	0.898927688031108
283.170349237811	0.5	target	Att	Inval	Word	Mas	1	0.898927688031108
283.687209185508	5.31848522166183	Jitter2	Att	Inval	Word	Mas	1	0.898927688031108
289.0243554872	0.5	cue	Att	Inval	CueFace2	Fem	0	1.65286827869568
289.541453935155	3.23600696489302	Jitter1	Att	Inval	CueFace2	Fem	0	1.65286827869568
292.760362452093	0.5	target	Att	Inval	Word	Fem	0	1.65286827869568
293.277271921321	4.61821686617986	Jitter2	Att	Inval	Word	Fem	0	1.65286827869568
297.91395804274	0.5	cue	Att	Inval	CueFace2	Fem	1	2.27772444568109
298.431037422059	5.33742421995703	Jitter1	Att	Inval	CueFace2	Fem	1	2.27772444568109
303.751382262697	0.5	target	Att	Inval	Word	Fem	1	2.27772444568109
304.268260140601	3.21841842451613	Jitter2	Att	Inval	Word	Fem	1	2.27772444568109
307.503904943704	0.5	cue	Att	Val	CueFace2	Fem	1	1.77181160301188
308.02103185231	6.02131005517367	Jitter1	Att	Val	CueFace2	Fem	1	1.77181160301188
314.025214998877	0.5	target	Att	Val	Face	Fem	1	1.77181160301188
314.542103691831	4.61841979062956	Jitter2	Att	Val	Face	Fem	1	1.77181160301188
319.178817420085	0.5	cue	Att	Val	CueFace2	Fem	1	2.41820849874784
319.695836747429	3.23594862055324	Jitter1	Att	Val	CueFace2	Fem	1	2.41820849874784
322.914766040638	0.5	target	Att	Val	Face	Fem	1	2.41820849874784
323.431648756854	5.31843228485377	Jitter2	Att	Val	Face	Fem	1	2.41820849874784
328.76879505855	0.5	cue	Att	Inval	CueName1	Mas	1	0.636071086737502
329.285886391343	3.23601521848104	Jitter1	Att	Inval	CueName1	Mas	1	0.636071086737502
332.504810277031	0.5	target	Att	Inval	Face	Mas	1	0.636071086737502
333.021698685374	2.51835299348022	Jitter2	Att	Inval	Face	Mas	1	0.636071086737502
335.556913761098	0.5	cue	Att	Inval	CueName1	Fem	0	1.30746781883136
336.073978910088	3.93641876205584	Jitter1	Att	Inval	CueName1	Fem	0	1.30746781883136
339.993332523154	0.5	target	Att	Inval	Face	Fem	0	1.30746781883136
340.510245123056	6.01843823312811	Jitter2	Att	Inval	Face	Fem	0	1.30746781883136
346.547942109897	0.5	cue	Att	Inval	CueFace2	Fem	0	1.86031312977866
347.064939237935	3.93643726148366	Jitter1	Att	Inval	CueFace2	Fem	0	1.86031312977866
350.984379371381	0.5	target	Att	Inval	Word	Fem	0	1.86031312977866
351.501264364448	5.31845277652246	Jitter2	Att	Inval	Word	Fem	0	1.86031312977866
356.83846474138	0.5	cue	Att	Inval	CueName1	Fem	1	2.00937266177789
357.355459592563	5.32076876204519	Jitter1	Att	Inval	CueName1	Fem	1	2.00937266177789
362.659233503426	0.5	target	Att	Inval	Face	Fem	1	2.00937266177789
363.176082066861	3.21831198167638	Jitter2	Att	Inval	Face	Fem	1	2.00937266177789
366.411709793567	0.5	cue	Att	Val	CueName1	Mas	1	1.10131195065696
366.928817064327	2.53553369271685	Jitter1	Att	Val	CueName1	Mas	1	1.10131195065696
369.447243486284	0.5	target	Att	Val	Word	Mas	1	1.10131195065696
369.964162062919	3.2184286703523	Jitter2	Att	Val	Word	Mas	1	1.10131195065696
373.199840164983	0.5	cue	Att	Val	CueFace2	Fem	1	0.991802478525642
373.716955689328	5.32080576088993	Jitter1	Att	Val	CueFace2	Fem	1	0.991802478525642
379.020645925873	0.5	target	Att	Val	Face	Fem	1	0.991802478525642
379.537520103895	3.21842781652958	Jitter2	Att	Val	Face	Fem	1	0.991802478525642
382.773194221463	0.5	cue	Att	Inval	CueFace2	Mas	1	0.605217463569716
383.290282423586	6.0379694975818	Jitter1	Att	Inval	CueFace2	Mas	1	0.605217463569716
389.311163719045	0.5	target	Att	Inval	Word	Mas	1	0.605217463569716
389.828042450772	6.01844563289706	Jitter2	Att	Inval	Word	Mas	1	0.605217463569716
395.865735453121	0.5	cue	Att	Val	CueFace2	Mas	1	0.87118936778279
396.382775272134	2.53537915138077	Jitter1	Att	Val	CueFace2	Mas	1	0.87118936778279
398.901114604501	0.5	target	Att	Val	Face	Mas	1	0.87118936778279
399.418076441329	3.21833531941229	Jitter2	Att	Val	Face	Mas	1	0.87118936778279
402.653811464694	0.5	cue	Att	Inval	CueName1	Mas	0	2.48279823987832
403.17084530697	2.53559032941121	Jitter1	Att	Inval	CueName1	Mas	0	2.48279823987832
405.689401794105	0.5	target	Att	Inval	Face	Mas	0	2.48279823987832
406.206194859267	4.61833497788393	Jitter2	Att	Inval	Face	Mas	0	2.48279823987832
410.842868457999	0.5	cue	Att	Inval	CueName1	Fem	1	1.23203286180797
411.359899454212	6.02122695007347	Jitter1	Att	Inval	CueName1	Fem	1	1.23203286180797
417.364095408073	0.5	target	Att	Inval	Face	Fem	1	1.23203286180797
417.880976132044	2.51843866003765	Jitter2	Att	Inval	Face	Fem	1	1.23203286180797
420.416170146884	0.5	cue	Att	Val	CueFace2	Fem	1	1.07146298848966
420.93321053511	3.93640965464874	Jitter1	Att	Val	CueFace2	Fem	1	1.07146298848966
424.852579801533	0.5	target	Att	Val	Face	Fem	1	1.07146298848966
425.369543061395	3.91843433402028	Jitter2	Att	Val	Face	Fem	1	1.07146298848966
429.305768148719	0.5	cue	Att	Val	CueFace2	Mas	1	1.02972686597423
429.822800852569	3.93643441541644	Jitter1	Att	Val	CueFace2	Mas	1	1.02972686597423
433.742202564135	0.5	target	Att	Val	Face	Mas	1	1.02972686597423
434.259086134171	3.9184257958259	Jitter2	Att	Val	Face	Mas	1	1.02972686597423
438.195318905873	0.5	cue	Att	Inval	CueName1	Mas	1	0.696364692510542
438.712364132407	4.62024426069547	Jitter1	Att	Inval	CueName1	Mas	1	0.696364692510542
443.315563166569	0.5	target	Att	Inval	Face	Mas	1	0.696364692510542
443.832442752111	3.9182971536793	Jitter2	Att	Inval	Face	Mas	1	0.696364692510542
447.768664139552	0.5	cue	Att	Inval	CueName1	Fem	0	1.88319150916141
448.285707658451	3.2359491897696	Jitter1	Att	Inval	CueName1	Fem	0	1.88319150916141
451.504613329322	0.5	target	Att	Inval	Face	Fem	0	1.88319150916141
452.021497183963	3.91829772289202	Jitter2	Att	Inval	Face	Fem	0	1.88319150916141
455.957687264687	0.5	cue	Att	Inval	CueFace2	Fem	1	0.933135683593719
456.474715414832	4.63696717035418	Jitter1	Att	Inval	CueFace2	Fem	1	0.933135683593719
461.094654435041	0.5	target	Att	Inval	Word	Fem	1	0.933135683593719
461.611531743732	2.51843922925036	Jitter2	Att	Inval	Word	Fem	1	0.933135683593719
464.146792356496	0.5	cue	Att	Inval	CueFace2	Mas	1	0.781553968652588
464.663741101424	2.53536605947738	Jitter1	Att	Inval	CueFace2	Mas	1	0.781553968652588
467.182158415973	0.5	target	Att	Inval	Word	Mas	1	0.781553968652588
467.699116837521	2.5	Jitter2	Att	Inval	Word	Mas	1	0.781553968652588
