onset	duration	section	btype	validity	stim	gender	accuracy	reaction_time
10.0584664003909	0.5	cue	Att	Val	CueFace2	Fem	1	0.48428781304392
10.5755057003535	4.636874217691	Jitter1	Att	Val	CueFace2	Fem	1	0.48428781304392
15.1953406180819	0.5	target	Att	Val	Face	Fem	1	0.48428781304392
15.7122102934791	2.51836413612909	Jitter2	Att	Val	Face	Fem	1	0.48428781304392
18.2474839497027	0.5	cue	Att	Val	CueFace2	Mas	1	0.479160938992209
18.7645258111097	4.63685998744222	Jitter1	Att	Val	CueFace2	Mas	1	0.479160938992209
23.3843439371449	0.5	target	Att	Val	Face	Mas	1	0.479160938992209
23.9012563032884	4.61829321257028	Jitter2	Att	Val	Face	Mas	1	0.479160938992209
28.5378689690078	0.5	cue	Att	Inval	CueFace2	Mas	1	0.492477890462396
29.0550101575518	4.63698606744765	Jitter1	Att	Inval	CueFace2	Mas	1	0.492477890462396
33.6748550364555	0.5	target	Att	Inval	Word	Mas	1	0.492477890462396
34.1917249964572	4.61826959035534	Jitter2	Att	Inval	Word	Mas	1	0.492477890462396
38.8283834835765	0.5	cue	Att	Inval	CueName1	Mas	1	0.646000645483582
39.3454441289123	5.3207560701976	Jitter1	Att	Inval	CueName1	Mas	1	0.646000645483582
44.6491395537741	0.5	target	Att	Inval	Face	Mas	1	0.646000645483582
45.1659827609074	5.31843853187092	Jitter2	Att	Inval	Face	Mas	1	0.646000645483582
50.5031434619686	0.5	cue	Att	Val	CueFace2	Fem	1	0.596494463577983
51.0201876002175	2.53544555763074	Jitter1	Att	Val	CueFace2	Fem	1	0.596494463577983
53.5385890195994	0.5	target	Att	Val	Face	Fem	1	0.596494463577983
54.0554544259212	6.01844752538818	Jitter2	Att	Val	Face	Fem	1	0.596494463577983
60.0931199023689	0.5	cue	Att	Val	CueName1	Mas	1	0.616874456758524
60.6101409876137	4.63689527846145	Jitter1	Att	Val	CueName1	Mas	1	0.616874456758524
65.2300151808304	0.5	target	Att	Val	Word	Mas	1	0.616874456758524
65.7469150243542	3.9184453054695	Jitter2	Att	Val	Word	Mas	1	0.616874456758524
69.6830960581647	0.5	cue	Att	Val	CueName1	Mas	1	0.555690932655125
70.2000969364544	3.23594834078176	Jitter1	Att	Val	CueName1	Mas	1	0.555690932655125
73.4190443989464	0.5	target	Att	Val	Word	Mas	1	0.555690932655125
73.9359277353815	6.01850131572792	Jitter2	Att	Val	Word	Mas	1	0.555690932655125
79.9735875197312	0.5	cue	Att	Val	CueFace2	Mas	1	0.492320503910378
80.4905596529188	5.32069516473166	Jitter1	Att	Val	CueFace2	Mas	1	0.492320503910378
85.7942826844628	0.5	target	Att	Val	Face	Mas	1	0.492320503910378
86.3111657362933	5.31828939886327	Jitter2	Att	Val	Face	Mas	1	0.492320503910378
91.6482581321598	0.5	cue	Att	Val	CueName1	Mas	1	0.516886751696802
92.1653554915392	3.93653593621639	Jitter1	Att	Val	CueName1	Mas	1	0.516886751696802
96.0847940683761	0.5	target	Att	Val	Word	Mas	1	0.516886751696802
96.6016321526204	2.51818369657485	Jitter2	Att	Val	Word	Mas	1	0.516886751696802
99.1368449033798	0.5	cue	Att	Val	CueFace2	Mas	1	0.524252613100543
99.6538753805889	6.021204493798	Jitter1	Att	Val	CueFace2	Mas	1	0.524252613100543
105.658049397178	0.5	target	Att	Val	Face	Mas	1	0.524252613100543
106.174946963863	2.51826395517674	Jitter2	Att	Val	Face	Mas	1	0.524252613100543
108.710152314892	0.5	cue	Att	Val	CueName1	Mas	0	0.810686176908348
109.227188484199	5.33737984689287	Jitter1	Att	Val	CueName1	Mas	0	0.810686176908348
114.547532161785	0.5	target	Att	Val	Word	Mas	0	0.810686176908348
115.064420621111	5.31847154604839	Jitter2	Att	Val	Word	Mas	0	0.810686176908348
120.401621451474	0.5	cue	Att	Val	CueName1	Mas	1	0.570465915423483
120.918654490128	6.03788291465025	Jitter1	Att	Val	CueName1	Mas	1	0.570465915423483
126.939504366124	0.5	target	Att	Val	Word	Mas	1	0.570465915423483
127.456342734975	4.61838656300097	Jitter2	Att	Val	Word	Mas	1	0.570465915423483
132.093023990492	0.5	cue	Att	Inval	CueFace2	Fem	1	0.583031225150989
132.610014053795	6.03780123302204	Jitter1	Att	Inval	CueFace2	Fem	1	0.583031225150989
138.630825223514	0.5	target	Att	Inval	Word	Fem	1	0.583031225150989
139.147778572775	6.01841451121072	Jitter2	Att	Inval	Word	Fem	1	0.583031225150989
145.18541871938	0.5	cue	Att	Inval	CueName1	Fem	1	0.548003183021137
145.702481356951	4.620233933907	Jitter1	Att	Inval	CueName1	Fem	1	0.548003183021137
150.305652653287	0.5	target	Att	Inval	Face	Fem	1	0.548003183021137
150.822535135907	5.31844308555083	Jitter2	Att	Inval	Face	Fem	1	0.548003183021137
156.159641477419	0.5	cue	Att	Val	CueName1	Fem	1	0.698384468310906
156.676718060633	2.53555626896377	Jitter1	Att	Val	CueName1	Fem	1	0.698384468310906
159.195197746383	0.5	target	Att	Val	Word	Fem	1	0.698384468310906
159.712030992343	3.21845737272088	Jitter2	Att	Val	Word	Fem	1	0.698384468310906
162.947789786211	0.5	cue	Att	Inval	CueFace2	Mas	1	0.628296223689176
163.464745981521	5.33731495695974	Jitter1	Att	Inval	CueFace2	Mas	1	0.628296223689176
168.78510474317	0.5	target	Att	Inval	Word	Mas	1	0.628296223689176
169.302008855768	3.91844103639596	Jitter2	Att	Inval	Word	Mas	1	0.628296223689176
173.238193304838	0.5	cue	Att	Inval	CueName1	Mas	1	0.485847448317145
173.755223782047	6.02120933208425	Jitter1	Att	Inval	CueName1	Mas	1	0.485847448317145
179.759402636922	0.5	target	Att	Inval	Face	Mas	1	0.485847448317145
180.276308741755	6.01837381269979	Jitter2	Att	Inval	Face	Mas	1	0.485847448317145
186.31392071247	0.5	cue	Att	Val	CueName1	Fem	1	0.474309277949942
186.830983065434	4.63690182437495	Jitter1	Att	Val	CueName1	Fem	1	0.474309277949942
191.450822536845	0.5	target	Att	Val	Word	Fem	1	0.474309277949942
191.967714980638	2.51831660710013	Jitter2	Att	Val	Word	Fem	1	0.474309277949942
194.502932285077	0.5	cue	Att	Inval	CueName1	Mas	1	0.63359386072807
195.019991791993	3.93640558713741	Jitter1	Att	Inval	CueName1	Mas	1	0.63359386072807
198.939337872214	0.5	target	Att	Inval	Face	Mas	1	0.63359386072807
199.456239138763	3.21842948143239	Jitter2	Att	Inval	Face	Mas	1	0.63359386072807
202.691982279355	0.5	cue	Att	Val	CueName1	Fem	1	0.619526690539715
203.208994541847	5.33729304237568	Jitter1	Att	Val	CueName1	Fem	1	0.619526690539715
208.529275321731	0.5	target	Att	Val	Word	Fem	1	0.619526690539715
209.046244324265	5.31841462505326	Jitter2	Att	Val	Word	Fem	1	0.619526690539715
214.383322205278	0.5	cue	Att	Val	CueName1	Fem	1	0.563423080666325
214.900399642309	6.03788917596103	Jitter1	Att	Val	CueName1	Fem	1	0.563423080666325
220.921211381239	0.5	target	Att	Val	Word	Fem	1	0.563423080666325
221.438141392891	6.01843642579297	Jitter2	Att	Val	Word	Fem	1	0.563423080666325
227.475782108706	0.5	cue	Att	Inval	CueFace2	Mas	1	0.800790461862562
227.99287064533	3.23596143261057	Jitter1	Att	Inval	CueFace2	Mas	1	0.800790461862562
231.211743541317	0.5	target	Att	Inval	Word	Mas	1	0.800790461862562
231.728571948992	3.21845936495447	Jitter2	Att	Inval	Word	Mas	1	0.800790461862562
234.96425532254	0.5	cue	Att	Inval	CueName1	Fem	1	0.748688113359094
235.481371750451	2.53549109442611	Jitter1	Att	Inval	CueName1	Fem	1	0.748688113359094
237.999746416966	0.5	target	Att	Inval	Face	Fem	1	0.748688113359094
238.516637722341	4.61843665347806	Jitter2	Att	Inval	Face	Fem	1	0.748688113359094
243.153320116278	0.5	cue	Att	Val	CueFace2	Mas	1	0.667110081220017
243.670334655608	3.23591788804879	Jitter1	Att	Val	CueFace2	Mas	1	0.667110081220017
246.889238004327	0.5	target	Att	Val	Face	Mas	1	0.667110081220017
247.406129594307	6.01834478299133	Jitter2	Att	Val	Face	Mas	1	0.667110081220017
253.443775148407	0.5	cue	Att	Val	CueName1	Fem	1	0.579896870540324
253.960802494961	3.93644742406832	Jitter1	Att	Val	CueName1	Fem	1	0.579896870540324
257.880222572476	0.5	target	Att	Val	Word	Fem	1	0.579896870540324
258.397084278933	4.61843665347806	Jitter2	Att	Val	Word	Fem	1	0.579896870540324
263.033761549981	0.5	cue	Att	Val	CueName1	Fem	1	0.714347676854231
263.550758728408	3.2359158958152	Jitter1	Att	Val	CueName1	Fem	1	0.714347676854231
266.769677445796	0.5	target	Att	Val	Word	Fem	1	0.714347676854231
267.286578712345	3.91833744018368	Jitter2	Att	Val	Word	Fem	1	0.714347676854231
271.222788206653	0.5	cue	Att	Inval	CueFace2	Fem	1	0.673692140519051
271.739812707157	2.5353820907203	Jitter1	Att	Inval	CueFace2	Fem	1	0.673692140519051
274.258170297373	0.5	target	Att	Inval	Word	Fem	1	0.673692140519051
274.775099739814	3.91843733652968	Jitter2	Att	Inval	Word	Fem	1	0.673692140519051
278.711328018051	0.5	cue	Att	Inval	CueFace2	Mas	0	0.576067795183917
279.228334873047	3.93636858848913	Jitter1	Att	Inval	CueFace2	Mas	0	0.576067795183917
283.14769660654	0.5	target	Att	Inval	Word	Mas	0	0.576067795183917
283.664595311646	5.318435116611	Jitter2	Att	Inval	Word	Mas	0	0.576067795183917
289.001756012707	0.5	cue	Att	Inval	CueFace2	Fem	1	0.529974880764712
289.518824057772	3.23590963450442	Jitter1	Att	Inval	CueFace2	Fem	1	0.529974880764712
292.737665647212	0.5	target	Att	Inval	Word	Fem	1	0.529974880764712
293.254561790871	4.61840762377142	Jitter2	Att	Inval	Word	Fem	1	0.529974880764712
297.891284598716	0.5	cue	Att	Inval	CueFace2	Fem	1	0.578848670411389
298.408272954388	5.33737842386836	Jitter1	Att	Inval	CueFace2	Fem	1	0.578848670411389
303.728663022584	0.5	target	Att	Inval	Word	Fem	1	0.578848670411389
304.245518183128	3.21843830418584	Jitter2	Att	Inval	Word	Fem	1	0.578848670411389
307.481224609679	0.5	cue	Att	Val	CueFace2	Fem	1	0.448873846567949
307.998296354608	6.02124348467987	Jitter1	Att	Val	CueFace2	Fem	1	0.448873846567949
314.002468094359	0.5	target	Att	Val	Face	Fem	1	0.448873846567949
314.519504548272	4.61819047017343	Jitter2	Att	Val	Face	Fem	1	0.448873846567949
319.155988857146	0.5	cue	Att	Val	CueFace2	Fem	1	0.831331706531273
319.673044664198	3.23588402005589	Jitter1	Att	Val	CueFace2	Fem	1	0.831331706531273
322.891872877202	0.5	target	Att	Val	Face	Fem	1	0.831331706531273
323.408803173459	5.31844308555083	Jitter2	Att	Val	Face	Fem	1	0.831331706531273
328.745941390727	0.5	cue	Att	Inval	CueName1	Mas	1	0.793190370561206
329.263024804462	3.23594577933727	Jitter1	Att	Inval	CueName1	Mas	1	0.793190370561206
332.481887170065	0.5	target	Att	Inval	Face	Mas	1	0.793190370561206
332.998783882935	2.51839401965117	Jitter2	Att	Inval	Face	Mas	1	0.793190370561206
335.534039609043	0.5	cue	Att	Inval	CueName1	Fem	1	0.517015393144902
336.05109285465	3.936336997338	Jitter1	Att	Inval	CueName1	Fem	1	0.517015393144902
339.970376606381	0.5	target	Att	Inval	Face	Fem	1	0.517015393144902
340.487335078531	6.01827505477195	Jitter2	Att	Inval	Face	Fem	1	0.517015393144902
346.524886997595	0.5	cue	Att	Inval	CueFace2	Fem	1	0.553432307558978
347.04194707372	3.93650519887888	Jitter1	Att	Inval	CueFace2	Fem	1	0.553432307558978
350.961392196474	0.5	target	Att	Inval	Word	Fem	1	0.553432307558978
351.478263864105	5.31836254234258	Jitter2	Att	Inval	Word	Fem	1	0.553432307558978
356.815340037489	0.5	cue	Att	Inval	CueName1	Fem	1	0.454666127056043
357.332459880659	5.3206960185471	Jitter1	Att	Inval	CueName1	Fem	1	0.454666127056043
362.636036056036	0.5	target	Att	Inval	Face	Fem	1	0.454666127056043
363.153014165928	3.21843061985237	Jitter2	Att	Inval	Face	Fem	1	0.454666127056043
366.388669363583	0.5	cue	Att	Val	CueName1	Mas	0	1.02634702112482
366.905736554834	2.53548682535074	Jitter1	Att	Val	CueName1	Mas	0	1.02634702112482
369.424156188934	0.5	target	Att	Val	Word	Mas	0	1.02634702112482
369.941022164467	3.21840984368828	Jitter2	Att	Val	Word	Mas	0	1.02634702112482
373.176700984335	0.5	cue	Att	Val	CueFace2	Fem	1	0.516983232782877
373.693811720146	5.32076830821097	Jitter1	Att	Val	CueFace2	Fem	1	0.516983232782877
378.997469292546	0.5	target	Att	Val	Face	Fem	1	0.516983232782877
379.514391904468	3.21843005064329	Jitter2	Att	Val	Face	Fem	1	0.516983232782877
382.750049948174	0.5	cue	Att	Inval	CueFace2	Mas	1	0.754319022824347
383.267079856172	6.03789173740552	Jitter1	Att	Inval	CueFace2	Mas	1	0.754319022824347
389.287941685579	0.5	target	Att	Inval	Word	Mas	1	0.754319022824347
389.80481904531	6.01830693052943	Jitter2	Att	Inval	Word	Mas	1	0.754319022824347
395.842460045731	0.5	cue	Att	Val	CueFace2	Mas	1	0.796220275144151
396.359487676889	2.53543986552904	Jitter1	Att	Val	CueFace2	Mas	1	0.796220275144151
398.87789991126	0.5	target	Att	Val	Face	Mas	1	0.796220275144151
399.394793493475	3.21846221100532	Jitter2	Att	Val	Face	Mas	1	0.796220275144151
402.630462352168	0.5	cue	Att	Inval	CueName1	Mas	1	0.616122815017661
403.147511897911	2.53544043473994	Jitter1	Att	Inval	CueName1	Mas	1	0.616122815017661
405.665902786908	0.5	target	Att	Inval	Face	Mas	1	0.616122815017661
406.182833652376	4.61843807650257	Jitter2	Att	Inval	Face	Mas	1	0.616122815017661
410.819504662115	0.5	cue	Att	Inval	CueName1	Fem	1	0.477087591734744
411.336534285509	6.02123722337092	Jitter1	Att	Inval	CueName1	Fem	1	0.477087591734744
417.340741885486	0.5	target	Att	Inval	Face	Fem	1	0.477087591734744
417.857587938668	2.51826281675858	Jitter2	Att	Inval	Face	Fem	1	0.477087591734744
420.392805243107	0.5	cue	Att	Val	CueFace2	Fem	1	0.604531138915263
420.909893210521	3.93641099463093	Jitter1	Att	Val	CueFace2	Fem	1	0.604531138915263
424.829216237738	0.5	target	Att	Val	Face	Fem	1	0.604531138915263
425.346114942842	3.91843192903616	Jitter2	Att	Val	Face	Fem	1	0.604531138915263
429.282299391913	0.5	cue	Att	Val	CueFace2	Mas	1	0.658900081452884
429.799325600046	3.9364132714727	Jitter1	Att	Val	CueFace2	Mas	1	0.658900081452884
433.718712663385	0.5	target	Att	Val	Face	Mas	1	0.658900081452884
434.235587177065	3.91829048036197	Jitter2	Att	Val	Face	Mas	1	0.658900081452884
438.17184334659	0.5	cue	Att	Inval	CueName1	Mas	1	0.652777374587458
438.688854755266	4.63684404956439	Jitter1	Att	Inval	CueName1	Mas	1	0.652777374587458
443.308687396155	0.5	target	Att	Inval	Face	Mas	1	0.652777374587458
443.825584393629	3.91846465860726	Jitter2	Att	Inval	Face	Mas	1	0.652777374587458
447.761768558095	0.5	cue	Att	Inval	CueName1	Fem	1	0.623673669655545
448.278836887765	3.23592756461767	Jitter1	Att	Inval	CueName1	Fem	1	0.623673669655545
451.497696122713	0.5	target	Att	Inval	Face	Fem	1	0.623673669655545
452.014591981768	3.91838809986803	Jitter2	Att	Inval	Face	Fem	1	0.623673669655545
455.950821967634	0.5	cue	Att	Inval	CueFace2	Fem	1	0.521499913764274
456.467839353014	4.63689328622604	Jitter1	Att	Inval	CueFace2	Fem	1	0.521499913764274
461.08771525386	0.5	target	Att	Inval	Word	Fem	1	0.521499913764274
461.604570129797	2.51825342479424	Jitter2	Att	Inval	Word	Fem	1	0.521499913764274
464.13978942647	0.5	cue	Att	Inval	CueFace2	Mas	1	1.00195210553647
464.656767251758	2.53545153433333	Jitter1	Att	Inval	CueFace2	Mas	1	1.00195210553647
467.175240960803	0.5	target	Att	Inval	Word	Mas	1	1.00195210553647
467.692144788798	2.51830522289856	Jitter2	Att	Inval	Word	Mas	1	1.00195210553647
