onset	duration	section	btype	validity	stim	gender	accuracy	reaction_time
10.0565034798647	0.5	cue	Exp	Inval	CueFace2	Fem	1	0.558283968599426
10.573558717706	4.63693540776239	Jitter1	Exp	Inval	CueFace2	Fem	1	0.558283968599426
15.1934388876271	0.5	target	Exp	Inval	Word	Fem	1	0.558283968599426
15.7103156781477	2.51894188423285	Jitter2	Exp	Inval	Word	Fem	1	0.558283968599426
18.2455005376187	0.5	cue	Exp	Val	CueName1	Mas	1	0.64822540258865
18.7625808206976	6.03783737785398	Jitter1	Exp	Val	CueName1	Mas	1	0.64822540258865
24.7833379154727	0.5	target	Exp	Val	Word	Mas	1	0.64822540258865
25.3003146023411	6.01838092782327	Jitter2	Exp	Val	Word	Mas	1	0.64822540258865
31.3379484876368	0.5	cue	Exp	Val	CueFace2	Mas	1	0.592674495580468
31.8550131174434	5.32075749322212	Jitter1	Exp	Val	CueFace2	Mas	1	0.592674495580468
37.1587059808589	0.5	target	Exp	Val	Face	Mas	1	0.592674495580468
37.6756120856926	3.21850177109718	Jitter2	Exp	Val	Face	Mas	1	0.592674495580468
40.9112681371635	0.5	cue	Exp	Inval	CueName1	Mas	1	0.782721461093388
41.4282923530627	6.02120591682342	Jitter1	Exp	Inval	CueName1	Mas	1	0.782721461093388
47.4324740539869	0.5	target	Exp	Inval	Face	Mas	1	0.782721461093388
47.9493659285718	6.01844268710374	Jitter2	Exp	Inval	Face	Mas	1	0.782721461093388
53.9870217284515	0.5	cue	Exp	Val	CueFace2	Fem	1	0.591632556760487
54.5040837968118	3.9364127022609	Jitter1	Exp	Val	CueFace2	Fem	1	0.591632556760487
58.4234344307124	0.5	target	Exp	Val	Face	Fem	1	0.591632556760487
58.9403544811903	6.01834762904127	Jitter2	Exp	Val	Face	Fem	1	0.591632556760487
64.9779957662158	0.5	cue	Exp	Inval	CueFace2	Mas	1	0.455465013225876
65.4949983521365	5.33744075235882	Jitter1	Exp	Inval	CueFace2	Mas	1	0.455465013225876
70.8154365185746	0.5	target	Exp	Inval	Word	Mas	1	0.455465013225876
71.3324174745176	5.31821027867954	Jitter2	Exp	Inval	Word	Mas	1	0.455465013225876
76.6694589260942	0.5	cue	Exp	Inval	CueName1	Fem	1	0.685887748381901
77.1864797267335	2.53543246580011	Jitter1	Exp	Inval	CueName1	Fem	1	0.685887748381901
79.7048913918943	0.5	target	Exp	Inval	Face	Fem	1	0.685887748381901
80.2218083117168	3.91837386962015	Jitter2	Exp	Inval	Face	Fem	1	0.685887748381901
84.1579882071073	0.5	cue	Exp	Val	CueFace2	Fem	1	0.587892847364856
84.6750109999821	5.32071764852572	Jitter1	Exp	Val	CueFace2	Fem	1	0.587892847364856
89.9787058556331	0.5	target	Exp	Val	Face	Fem	1	0.587892847364856
90.4956165141466	2.51844496394369	Jitter2	Exp	Val	Face	Fem	1	0.587892847364856
93.0308244266198	0.5	cue	Exp	Val	CueFace2	Mas	1	0.635278722192197
93.5478571806689	3.93641042542185	Jitter1	Exp	Val	CueFace2	Mas	1	0.635278722192197
97.4672348520417	0.5	target	Exp	Val	Face	Mas	1	0.635278722192197
97.9841514872596	4.6184258384892	Jitter2	Exp	Val	Face	Mas	1	0.635278722192197
102.620883971674	0.5	cue	Exp	Val	CueFace2	Fem	1	0.568579269031943
103.13787830405	4.63691577001828	Jitter1	Exp	Val	CueFace2	Fem	1	0.568579269031943
107.757799741692	0.5	target	Exp	Val	Face	Fem	1	0.568579269031943
108.274637825936	4.61847592896538	Jitter2	Exp	Val	Face	Fem	1	0.568579269031943
112.911296882266	0.5	cue	Exp	Val	CueFace2	Mas	1	0.715519110939567
113.428280684258	2.53545893406408	Jitter1	Exp	Val	CueFace2	Mas	1	0.715519110939567
115.94675581633	0.5	target	Exp	Val	Face	Mas	1	0.715519110939567
116.463659359718	4.61846255253113	Jitter2	Exp	Val	Face	Mas	1	0.715519110939567
121.100323823543	0.5	cue	Exp	Val	CueFace2	Fem	1	0.473867855632307
121.617348324046	3.23592642619769	Jitter1	Exp	Val	CueFace2	Fem	1	0.473867855632307
124.83625024974	0.5	target	Exp	Val	Face	Fem	1	0.473867855632307
125.353171723243	5.3185623350364	Jitter2	Exp	Val	Face	Fem	1	0.473867855632307
130.690322178525	0.5	cue	Exp	Val	CueName1	Fem	1	0.689677548252803
131.207345256004	6.03792759763292	Jitter1	Exp	Val	CueName1	Fem	1	0.689677548252803
137.228249776158	0.5	target	Exp	Val	Word	Fem	1	0.689677548252803
137.745132543383	5.31841064058335	Jitter2	Exp	Val	Word	Fem	1	0.689677548252803
143.082265922368	0.5	cue	Exp	Val	CueName1	Fem	1	0.552077587870372
143.599368404635	2.53547828720093	Jitter1	Exp	Val	CueName1	Fem	1	0.552077587870372
146.117744209569	0.5	target	Exp	Val	Word	Fem	1	0.552077587870372
146.634626976795	3.21837455267178	Jitter2	Exp	Val	Word	Fem	1	0.552077587870372
149.870314334812	0.5	cue	Exp	Val	CueFace2	Fem	0	0.494103554090543
150.387342819786	6.02120762445338	Jitter1	Exp	Val	CueFace2	Fem	0	0.494103554090543
156.391521959265	0.5	target	Exp	Val	Face	Fem	0	0.494103554090543
156.908466770376	3.21853848513911	Jitter2	Exp	Val	Face	Fem	0	0.494103554090543
160.144089523064	0.5	cue	Exp	Val	CueName1	Fem	1	0.684524775147111
160.661192289937	4.63693540776239	Jitter1	Exp	Val	CueName1	Fem	1	0.684524775147111
165.281024930827	0.5	target	Exp	Val	Word	Fem	1	0.684524775147111
165.797941566044	6.01843187211489	Jitter2	Exp	Val	Word	Fem	1	0.684524775147111
171.83557829739	0.5	cue	Exp	Val	CueName1	Mas	1	0.553876291323832
172.352579175681	3.23594236407644	Jitter1	Exp	Val	CueName1	Mas	1	0.553876291323832
175.571520661467	0.5	target	Exp	Val	Word	Mas	1	0.553876291323832
176.088425058671	3.91841229129204	Jitter2	Exp	Val	Word	Mas	1	0.553876291323832
180.024643944943	0.5	cue	Exp	Val	CueFace2	Mas	1	0.683488243822467
180.541650230729	6.02116407989251	Jitter1	Exp	Val	CueFace2	Mas	1	0.683488243822467
186.545808024835	0.5	target	Exp	Val	Face	Mas	1	0.683488243822467
187.062716975719	3.91853751748204	Jitter2	Exp	Val	Face	Mas	1	0.683488243822467
190.99889231743	0.5	cue	Exp	Val	CueFace2	Fem	1	0.56280577247162
191.515923648453	2.53544043473994	Jitter1	Exp	Val	CueFace2	Fem	1	0.56280577247162
194.03433275217	0.5	target	Exp	Val	Face	Fem	1	0.56280577247162
194.551255079487	3.91847860425241	Jitter2	Exp	Val	Face	Fem	1	0.56280577247162
198.487403952935	0.5	cue	Exp	Val	CueName1	Fem	1	0.787691233199439
199.004517534797	6.03790625225884	Jitter1	Exp	Val	CueName1	Fem	1	0.787691233199439
205.025310205194	0.5	target	Exp	Val	Word	Fem	1	0.787691233199439
205.542226271202	5.3185088293003	Jitter2	Exp	Val	Word	Fem	1	0.787691233199439
210.87937985714	0.5	cue	Exp	Val	CueName1	Mas	1	0.650003614482557
211.39644135629	2.53543986552995	Jitter1	Exp	Val	CueName1	Mas	1	0.650003614482557
213.91481972267	0.5	target	Exp	Val	Word	Mas	1	0.650003614482557
214.431737211702	4.61837090972858	Jitter2	Exp	Val	Word	Mas	1	0.650003614482557
219.068401106316	0.5	cue	Exp	Val	CueFace2	Mas	1	0.563822666053966
219.585480820186	3.93648413811115	Jitter1	Exp	Val	CueFace2	Mas	1	0.563822666053966
223.504885244427	0.5	target	Exp	Val	Face	Mas	1	0.563822666053966
224.021738981945	2.51851326913857	Jitter2	Exp	Val	Face	Mas	1	0.563822666053966
226.556948602049	0.5	cue	Exp	Val	CueName1	Fem	1	0.531172213902209
227.07400668594	3.93644457801929	Jitter1	Exp	Val	CueName1	Fem	1	0.531172213902209
230.993393180068	0.5	target	Exp	Val	Word	Fem	1	0.531172213902209
231.510274239663	3.91838269237451	Jitter2	Exp	Val	Word	Fem	1	0.531172213902209
235.446448727559	0.5	cue	Exp	Val	CueName1	Fem	1	0.516951357024482
235.963515634205	3.23596826313042	Jitter1	Exp	Val	CueName1	Fem	1	0.516951357024482
239.182416990689	0.5	target	Exp	Val	Word	Fem	1	0.516951357024482
239.699309434483	4.61838257853287	Jitter2	Exp	Val	Word	Fem	1	0.516951357024482
244.336028827069	0.5	cue	Exp	Inval	CueName1	Fem	1	0.648007679780676
244.852996121972	3.93634126641246	Jitter1	Exp	Inval	CueName1	Fem	1	0.648007679780676
248.772370093481	0.5	target	Exp	Inval	Face	Fem	1	0.648007679780676
249.289309781702	4.61831028886809	Jitter2	Exp	Inval	Face	Fem	1	0.648007679780676
253.925930700964	0.5	cue	Exp	Val	CueFace2	Mas	1	0.414033928328536
254.443022368243	4.62026694808446	Jitter1	Exp	Val	CueFace2	Mas	1	0.414033928328536
259.046197649049	0.5	target	Exp	Val	Face	Mas	1	0.414033928328536
259.563213896008	6.01831916854371	Jitter2	Exp	Val	Face	Mas	1	0.414033928328536
265.600732231684	0.5	cue	Exp	Val	CueName1	Fem	1	0.701931215530749
266.117766408757	5.33735394784162	Jitter1	Exp	Val	CueName1	Fem	1	0.701931215530749
271.438086179525	0.5	target	Exp	Val	Word	Fem	1	0.701931215530749
271.95504209023	2.51853290688086	Jitter2	Exp	Val	Word	Fem	1	0.701931215530749
274.490240326134	0.5	cue	Exp	Val	CueName1	Fem	1	0.517250476856134
275.007221851287	3.93645653142812	Jitter1	Exp	Val	CueName1	Fem	1	0.517250476856134
278.926696857562	0.5	target	Exp	Val	Word	Fem	1	0.517250476856134
279.443581047813	2.5185090000632	Jitter2	Exp	Val	Word	Fem	1	0.517250476856134
281.978750823219	0.5	cue	Exp	Val	CueName1	Mas	1	0.499636844049746
282.49581459921	5.33746209773199	Jitter1	Exp	Val	CueName1	Mas	1	0.499636844049746
287.816212920951	0.5	target	Exp	Val	Word	Mas	1	0.499636844049746
288.333090280683	5.31833408184411	Jitter2	Exp	Val	Word	Mas	1	0.499636844049746
293.670201175873	0.5	cue	Exp	Val	CueFace2	Fem	1	0.516960464384283
294.187269505544	6.02124576152073	Jitter1	Exp	Val	CueFace2	Fem	1	0.516960464384283
300.191446937394	0.5	target	Exp	Val	Face	Fem	1	0.516960464384283
300.708356742092	3.21838223700615	Jitter2	Exp	Val	Face	Fem	1	0.516960464384283
303.944092198351	0.5	cue	Exp	Val	CueName1	Mas	1	0.623020785839799
304.461114991225	3.93641583291628	Jitter1	Exp	Val	CueName1	Mas	1	0.623020785839799
308.380508031268	0.5	target	Exp	Val	Word	Mas	1	0.623020785839799
308.897380552714	3.21826213370605	Jitter2	Exp	Val	Word	Mas	1	0.623020785839799
312.133079579536	0.5	cue	Exp	Inval	CueFace2	Fem	0	1.02685105653836
312.65016128564	2.53544157315991	Jitter1	Exp	Inval	CueFace2	Fem	0	1.02685105653836
315.168521152696	0.5	target	Exp	Inval	Word	Fem	0	1.02685105653836
315.685432095814	6.01853290688086	Jitter2	Exp	Inval	Word	Fem	0	1.02685105653836
321.72306484269	0.5	cue	Exp	Val	CueName1	Mas	1	0.855229986435006
322.240134595385	4.63691491620375	Jitter1	Exp	Val	CueName1	Mas	1	0.855229986435006
326.859979758894	0.5	target	Exp	Val	Word	Mas	1	0.855229986435006
327.376887855962	2.51852977622639	Jitter2	Exp	Val	Word	Mas	1	0.855229986435006
329.912064461889	0.5	cue	Exp	Val	CueFace2	Mas	1	0.643121012329175
330.429141614313	3.23596968615402	Jitter1	Exp	Val	CueFace2	Mas	1	0.643121012329175
333.648034148043	0.5	target	Exp	Val	Face	Mas	1	0.643121012329175
334.164944237346	5.31848606090171	Jitter2	Exp	Val	Face	Mas	1	0.643121012329175
339.502090423554	0.5	cue	Exp	Val	CueFace2	Mas	1	0.565004630522708
340.019153061126	3.23592813382857	Jitter1	Exp	Val	CueFace2	Mas	1	0.565004630522708
343.238018557383	0.5	target	Exp	Val	Face	Mas	1	0.565004630522708
343.75493633102	2.51861828837446	Jitter2	Exp	Val	Face	Mas	1	0.565004630522708
346.290101268142	0.5	cue	Exp	Val	CueName1	Mas	1	0.46937764291215
346.807136583636	2.53548682535165	Jitter1	Exp	Val	CueName1	Mas	1	0.46937764291215
349.325588093494	0.5	target	Exp	Val	Word	Mas	1	0.46937764291215
349.842561649707	6.01836783599447	Jitter2	Exp	Val	Word	Mas	1	0.46937764291215
355.880142883082	0.5	cue	Exp	Inval	CueFace2	Fem	1	0.574182002605994
356.39718019081	3.93641156384183	Jitter1	Exp	Inval	CueFace2	Fem	1	0.574182002605994
360.316554446924	0.5	target	Exp	Inval	Word	Fem	1	0.574182002605994
360.833472789772	3.21844968838559	Jitter2	Exp	Inval	Word	Fem	1	0.574182002605994
364.069159578579	0.5	cue	Exp	Val	CueName1	Mas	1	0.621560477703497
364.586157610821	3.23593439513752	Jitter1	Exp	Val	CueName1	Mas	1	0.621560477703497
367.805093973717	0.5	target	Exp	Val	Word	Mas	1	0.621560477703497
368.32200747828	3.21853051619928	Jitter2	Exp	Val	Word	Mas	1	0.621560477703497
371.557659260676	0.5	cue	Exp	Inval	CueName1	Fem	1	0.468871615264106
372.074762596758	3.23597395522938	Jitter1	Exp	Inval	CueName1	Fem	1	0.468871615264106
375.293633215905	0.5	target	Exp	Inval	Face	Fem	1	0.468871615264106
375.810546151258	5.31846841539391	Jitter2	Exp	Inval	Face	Fem	1	0.468871615264106
381.147655338819	0.5	cue	Exp	Inval	CueName1	Mas	1	0.534464239669433
381.664695207992	4.62027207097344	Jitter1	Exp	Inval	CueName1	Mas	1	0.534464239669433
386.267927409793	0.5	target	Exp	Inval	Face	Mas	1	0.534464239669433
386.784838922121	3.21836914517735	Jitter2	Exp	Inval	Face	Mas	1	0.534464239669433
390.020596862173	0.5	cue	Exp	Val	CueName1	Fem	1	0.640319076331252
390.537556472742	5.33732947181306	Jitter1	Exp	Val	CueName1	Fem	1	0.640319076331252
395.857926333986	0.5	target	Exp	Val	Word	Fem	1	0.640319076331252
396.374835854079	4.61848361329976	Jitter2	Exp	Val	Word	Fem	1	0.640319076331252
401.011468157541	0.5	cue	Exp	Val	CueFace2	Mas	1	0.622380993851948
401.528496073305	4.62026239440456	Jitter1	Exp	Val	CueFace2	Mas	1	0.622380993851948
406.131730551945	0.5	target	Exp	Val	Face	Mas	1	0.622380993851948
406.648641779669	6.01854685252511	Jitter2	Exp	Val	Face	Mas	1	0.622380993851948
412.6862833493	0.5	cue	Exp	Val	CueName1	Mas	1	0.546733844825212
413.203307565198	4.63694935340573	Jitter1	Exp	Val	CueName1	Mas	1	0.546733844825212
417.823232702705	0.5	target	Exp	Val	Word	Mas	1	0.546733844825212
418.340098962843	3.91841001445209	Jitter2	Exp	Val	Word	Mas	1	0.546733844825212
422.276282842702	0.5	cue	Exp	Val	CueFace2	Fem	1	0.496693174774919
422.793305066367	5.32075806243211	Jitter1	Exp	Val	CueFace2	Fem	1	0.496693174774919
428.097040905134	0.5	target	Exp	Val	Face	Fem	1	0.496693174774919
428.613906026852	5.31854241268775	Jitter2	Exp	Val	Face	Fem	1	0.496693174774919
433.951029444661	0.5	cue	Exp	Inval	CueFace2	Mas	1	0.538586458153077
434.468082405663	3.23600668480231	Jitter1	Exp	Inval	CueFace2	Mas	1	0.538586458153077
437.687036129463	0.5	target	Exp	Inval	Word	Mas	1	0.538586458153077
438.203904666439	4.61855533375365	Jitter2	Exp	Inval	Word	Mas	1	0.538586458153077
442.840610113381	0.5	cue	Exp	Val	CueFace2	Fem	1	0.54157139515064
443.357646851899	2.53539916701811	Jitter1	Exp	Val	CueFace2	Fem	1	0.54157139515064
445.876009280399	0.5	target	Exp	Val	Face	Fem	1	0.54157139515064
446.392926769431	3.91847405057251	Jitter2	Exp	Val	Face	Fem	1	0.54157139515064
450.32907621209	0.5	cue	Exp	Inval	CueName1	Mas	1	0.427517373711453
450.846134295981	5.32079449186858	Jitter1	Exp	Inval	CueName1	Mas	1	0.427517373711453
456.149870703958	0.5	target	Exp	Inval	Face	Mas	1	0.427517373711453
456.666841414122	2.51832087617368	Jitter2	Exp	Inval	Face	Mas	1	0.427517373711453
459.201977606142	0.5	cue	Exp	Inval	CueFace2	Mas	0	0.613404268277918
459.71894461644	6.03784648521378	Jitter1	Exp	Inval	CueFace2	Mas	0	0.613404268277918
465.739824091355	0.5	target	Exp	Inval	Word	Mas	0	0.613404268277918
466.256730196189	3.91842139865184	Jitter2	Exp	Inval	Word	Mas	0	0.613404268277918
