onset	duration	section	btype	validity	stim	gender	accuracy	reaction_time
10.0577740285398	0.5	cue	Exp	Val	CueName2	Mas	1	0.733482980291228
10.5747928835444	3.2525488793126	Jitter1	Exp	Val	CueName2	Mas	1	0.733482980291228
13.8103229078524	0.5	target	Exp	Val	Word	Mas	1	0.733482980291228
14.3272922410415	4.6195216135684	Jitter2	Exp	Val	Word	Mas	1	0.733482980291228
18.9639620640128	0.5	cue	Exp	Val	CueFace2	Mas	1	0.726321385768642
19.4810378406437	5.33748249304153	Jitter1	Exp	Val	CueFace2	Mas	1	0.726321385768642
24.8014445570543	0.5	target	Exp	Val	Face	Mas	1	0.726321385768642
25.3183674991169	2.51838412023244	Jitter2	Exp	Val	Face	Mas	1	0.726321385768642
27.8535682602733	0.5	cue	Exp	Val	CueName2	Mas	1	0.601273393721385
28.3706266758081	4.63697506519657	Jitter1	Exp	Val	CueName2	Mas	1	0.601273393721385
32.9905433254698	0.5	target	Exp	Val	Word	Mas	1	0.601273393721385
33.5074659829243	5.31851407230715	Jitter2	Exp	Val	Word	Mas	1	0.601273393721385
38.8447024322331	0.5	cue	Exp	Val	CueName2	Mas	1	0.773593089486894
39.3617321023467	5.33743126357695	Jitter1	Exp	Val	CueName2	Mas	1	0.773593089486894
44.6821336958101	0.5	target	Exp	Val	Word	Mas	1	0.773593089486894
45.1990358614794	3.91847513791345	Jitter2	Exp	Val	Word	Mas	1	0.773593089486894
49.1352842082615	0.5	cue	Exp	Inval	CueName2	Fem	1	0.60040306204246
49.6523298164311	3.23596419401929	Jitter1	Exp	Inval	CueName2	Fem	1	0.60040306204246
52.8712484022808	0.5	target	Exp	Inval	Face	Fem	1	0.60040306204246
53.388131499205	3.91849477587493	Jitter2	Exp	Inval	Face	Fem	1	0.60040306204246
57.3243599234174	0.5	cue	Exp	Inval	CueName2	Fem	1	0.729995392194724
57.8413839013683	6.02133379895258	Jitter1	Exp	Inval	CueName2	Fem	1	0.729995392194724
63.84569372237	0.5	target	Exp	Inval	Face	Fem	1	0.729995392194724
64.3625270128696	5.31842669760954	Jitter2	Exp	Inval	Face	Fem	1	0.729995392194724
69.6996854795489	0.5	cue	Exp	Inval	CueFace2	Fem	1	0.886426554166974
70.216760117748	5.33752006131635	Jitter1	Exp	Inval	CueFace2	Fem	1	0.886426554166974
75.5372055408652	0.5	target	Exp	Inval	Word	Fem	1	0.886426554166974
76.0541022989792	5.31826504018863	Jitter2	Exp	Inval	Word	Fem	1	0.886426554166974
81.3913287870027	0.5	cue	Exp	Val	CueFace2	Mas	1	0.644447594107987
81.9083393883711	3.91979671579338	Jitter1	Exp	Val	CueFace2	Mas	1	0.644447594107987
85.8111255027961	0.5	target	Exp	Val	Face	Mas	1	0.644447594107987
86.3279929462724	3.21840173747569	Jitter2	Exp	Val	Face	Mas	1	0.644447594107987
89.5637110965581	0.5	cue	Exp	Inval	CueFace2	Fem	1	0.713888279352432
90.0807777657292	6.03791876885407	Jitter1	Exp	Inval	CueFace2	Fem	1	0.713888279352432
96.1016298654122	0.5	target	Exp	Inval	Word	Fem	1	0.713888279352432
96.6185718762199	2.51839379690864	Jitter2	Exp	Inval	Word	Fem	1	0.713888279352432
99.1538346819489	0.5	cue	Exp	Val	CueName2	Mas	1	0.633235171987508
99.6708307683029	3.93645966832355	Jitter1	Exp	Val	CueName2	Mas	1	0.633235171987508
103.590294350272	0.5	target	Exp	Val	Word	Mas	1	0.633235171987508
104.107178585628	3.21842849064069	Jitter2	Exp	Val	Word	Mas	1	0.633235171987508
107.342933734973	0.5	cue	Exp	Val	CueFace2	Fem	1	0.619748446252743
107.859977635493	5.32077599546665	Jitter1	Exp	Val	CueFace2	Fem	1	0.619748446252743
113.163709730439	0.5	target	Exp	Val	Face	Fem	1	0.619748446252743
113.680587419808	5.31840933651347	Jitter2	Exp	Val	Face	Fem	1	0.619748446252743
119.017746740312	0.5	cue	Exp	Inval	CueName2	Fem	1	0.688830240638708
119.534817963214	5.32086735467874	Jitter1	Exp	Inval	CueName2	Fem	1	0.688830240638708
124.838614094991	0.5	target	Exp	Inval	Face	Fem	1	0.688830240638708
125.35547499248	2.5183918046514	Jitter2	Exp	Inval	Face	Fem	1	0.688830240638708
127.890738367425	0.5	cue	Exp	Val	CueFace2	Mas	1	0.624922906771644
128.407718515723	3.91979984648242	Jitter1	Exp	Val	CueFace2	Mas	1	0.624922906771644
132.310538213907	0.5	target	Exp	Val	Face	Mas	1	0.624922906771644
132.827400249829	3.91839430920299	Jitter2	Exp	Val	Face	Mas	1	0.624922906771644
136.763691857048	0.5	cue	Exp	Val	CueName2	Mas	1	0.682783740792729
137.280711565877	4.63691330523125	Jitter1	Exp	Val	CueName2	Mas	1	0.682783740792729
141.900605162279	0.5	target	Exp	Val	Word	Mas	1	0.682783740792729
142.417488543811	2.51840745809932	Jitter2	Exp	Val	Word	Mas	1	0.682783740792729
144.952663405626	0.5	cue	Exp	Val	CueFace2	Fem	1	0.542347840663751
145.469805780562	4.62037415723989	Jitter1	Exp	Val	CueFace2	Fem	1	0.542347840663751
150.073037562866	0.5	target	Exp	Val	Face	Fem	1	0.542347840663751
150.589909275464	3.91841081647544	Jitter2	Exp	Val	Face	Fem	1	0.542347840663751
154.526242435471	0.5	cue	Exp	Inval	CueFace2	Mas	1	0.656251716543011
155.043183023238	4.63686919097017	Jitter1	Exp	Inval	CueFace2	Mas	1	0.656251716543011
159.663111626442	0.5	target	Exp	Inval	Word	Mas	1	0.656251716543011
160.179996715622	6.01841186952515	Jitter2	Exp	Inval	Word	Mas	1	0.656251716543011
166.217720954814	0.5	cue	Exp	Val	CueName2	Fem	1	0.621664997440348
166.734751763361	3.23596931696648	Jitter1	Exp	Val	CueName2	Fem	1	0.621664997440348
169.953690271781	0.5	target	Exp	Val	Word	Fem	1	0.621664997440348
170.470574791745	3.91844383101943	Jitter2	Exp	Val	Word	Fem	1	0.621664997440348
174.406859852978	0.5	cue	Exp	Inval	CueName2	Mas	1	0.688184180170538
174.923921968419	4.62026401389085	Jitter1	Exp	Inval	CueName2	Mas	1	0.688184180170538
179.527123866868	0.5	target	Exp	Inval	Face	Mas	1	0.688184180170538
180.043981918276	6.01839877755174	Jitter2	Exp	Inval	Face	Mas	1	0.688184180170538
186.065085896159	0.5	cue	Exp	Val	CueFace2	Mas	1	0.718247906778743
186.582032176088	3.23589446502592	Jitter1	Exp	Val	CueFace2	Mas	1	0.718247906778743
189.800980361185	0.5	target	Exp	Val	Face	Mas	1	0.718247906778743
190.317885372935	5.3183979521873	Jitter2	Exp	Val	Face	Mas	1	0.718247906778743
195.655119545379	0.5	cue	Exp	Val	CueFace2	Fem	1	0.615790400907827
196.172170276494	4.62029560539395	Jitter1	Exp	Val	CueFace2	Fem	1	0.615790400907827
200.775415150772	0.5	target	Exp	Val	Face	Fem	1	0.615790400907827
201.292278040519	5.3184016520936	Jitter2	Exp	Val	Face	Fem	1	0.615790400907827
206.629487452054	0.5	cue	Exp	Val	CueFace2	Fem	1	0.630203810731473
207.146545298373	2.53549547288094	Jitter1	Exp	Val	CueFace2	Fem	1	0.630203810731473
209.664982924935	0.5	target	Exp	Val	Face	Fem	1	0.630203810731473
210.181869721764	4.6184113572308	Jitter2	Exp	Val	Face	Fem	1	0.630203810731473
214.81861069677	0.5	cue	Exp	Val	CueFace2	Mas	1	0.563256008148528
215.335652605033	6.02126037005291	Jitter1	Exp	Val	CueFace2	Mas	1	0.563256008148528
221.339871066823	0.5	target	Exp	Val	Face	Mas	1	0.563256008148528
221.856758432868	3.91840597813643	Jitter2	Exp	Val	Face	Mas	1	0.563256008148528
225.793006495042	0.5	cue	Exp	Inval	CueFace2	Mas	1	0.657741924742368
226.310039295846	3.93640274669633	Jitter1	Exp	Inval	CueFace2	Mas	1	0.657741924742368
230.229409241739	0.5	target	Exp	Inval	Word	Mas	1	0.657741924742368
230.74635068333	3.91838150183685	Jitter2	Exp	Inval	Word	Mas	1	0.657741924742368
234.682599883937	0.5	cue	Exp	Val	CueFace2	Mas	1	0.723212326492103
235.199633253957	6.02127431585177	Jitter1	Exp	Val	CueFace2	Mas	1	0.723212326492103
241.203874199789	0.5	target	Exp	Val	Face	Mas	1	0.723212326492103
241.720747050819	6.01831339511045	Jitter2	Exp	Val	Face	Mas	1	0.723212326492103
247.741823421713	0.5	cue	Exp	Inval	CueFace2	Fem	1	0.78184729464283
248.258791901078	2.53538675257278	Jitter1	Exp	Inval	CueFace2	Fem	1	0.78184729464283
250.777210174286	0.5	target	Exp	Inval	Word	Fem	1	0.78184729464283
251.294151615877	3.21829842472198	Jitter2	Exp	Inval	Word	Fem	1	0.78184729464283
254.529941202805	0.5	cue	Exp	Val	CueName2	Mas	1	0.569657414341236
255.046973719001	2.5354436742	Jitter1	Exp	Val	CueName2	Mas	1	0.569657414341236
257.565384877005	0.5	target	Exp	Val	Word	Mas	1	0.569657414341236
258.08226484324	3.91841195490815	Jitter2	Exp	Val	Word	Mas	1	0.569657414341236
262.01853026651	0.5	cue	Exp	Val	CueFace2	Mas	1	0.545036249115583
262.535591243519	2.53545278165984	Jitter1	Exp	Val	CueFace2	Mas	1	0.545036249115583
265.05398304817	0.5	target	Exp	Val	Face	Mas	1	0.545036249115583
265.570871552649	2.51832036800897	Jitter2	Exp	Val	Face	Mas	1	0.545036249115583
268.106134642986	0.5	cue	Exp	Val	CueName2	Fem	1	0.736370329829697
268.623166874573	3.93648670609673	Jitter1	Exp	Val	CueName2	Fem	1	0.736370329829697
272.542621349083	0.5	target	Exp	Val	Word	Fem	1	0.736370329829697
273.059478262057	6.01828066517464	Jitter2	Exp	Val	Word	Fem	1	0.736370329829697
279.097248892376	0.5	cue	Exp	Val	CueName2	Fem	1	0.771765051430521
279.614285677693	6.03795263722168	Jitter1	Exp	Val	CueName2	Fem	1	0.771765051430521
285.635201529598	0.5	target	Exp	Val	Word	Fem	1	0.771765051430521
286.152031120192	5.31842129005508	Jitter2	Exp	Val	Word	Fem	1	0.771765051430521
291.489223170632	0.5	cue	Exp	Val	CueName2	Fem	1	0.738210321428596
292.006263086638	2.53547725795943	Jitter1	Exp	Val	CueName2	Fem	1	0.738210321428596
294.524700428591	0.5	target	Exp	Val	Word	Fem	1	0.738210321428596
295.041625932127	4.61839513456744	Jitter2	Exp	Val	Word	Fem	1	0.738210321428596
299.678352107509	0.5	cue	Exp	Inval	CueName2	Mas	1	0.532728939495428
300.195364985742	3.91981180002404	Jitter1	Exp	Inval	CueName2	Mas	1	0.532728939495428
304.098163907533	0.5	target	Exp	Inval	Face	Mas	1	0.532728939495428
304.615030212577	3.2184077142465	Jitter2	Exp	Inval	Face	Mas	1	0.532728939495428
307.850724740388	0.5	cue	Exp	Inval	CueName2	Mas	1	0.640602253583893
308.367814747426	2.53553218733032	Jitter1	Exp	Inval	CueName2	Mas	1	0.640602253583893
310.886256927718	0.5	target	Exp	Inval	Face	Mas	1	0.640602253583893
311.403145432196	4.61835130491454	Jitter2	Exp	Inval	Face	Mas	1	0.640602253583893
316.039852538833	0.5	cue	Exp	Val	CueName2	Fem	1	0.581000471595871
316.556916077315	6.03795633712707	Jitter1	Exp	Val	CueName2	Fem	1	0.581000471595871
322.57780887596	0.5	target	Exp	Val	Word	Fem	1	0.581000471595871
323.094710187805	5.31840108287724	Jitter2	Exp	Val	Word	Fem	1	0.581000471595871
328.431948060153	0.5	cue	Exp	Val	CueName2	Mas	1	0.721443202319279
328.949001352743	5.33738174176233	Jitter1	Exp	Val	CueName2	Mas	1	0.721443202319279
334.269329801916	0.5	target	Exp	Val	Word	Mas	1	0.721443202319279
334.786276366453	2.51839095082778	Jitter2	Exp	Val	Word	Mas	1	0.721443202319279
337.321538318359	0.5	cue	Exp	Val	CueName2	Fem	1	0.780331471711179
337.83853782001	4.63691586670484	Jitter1	Exp	Val	CueName2	Fem	1	0.780331471711179
342.458454185064	0.5	target	Exp	Val	Word	Fem	1	0.780331471711179
342.975375134869	4.61839769604012	Jitter2	Exp	Val	Word	Fem	1	0.780331471711179
347.612114686833	0.5	cue	Exp	Val	CueFace2	Fem	0	0.578567925858806
348.129145495379	3.23603676909443	Jitter1	Exp	Val	CueFace2	Fem	0	0.578567925858806
351.348151455927	0.5	target	Exp	Val	Face	Fem	0	0.578567925858806
351.864978485048	4.61841477252892	Jitter2	Exp	Val	Face	Fem	0	0.578567925858806
356.501669084413	0.5	cue	Exp	Val	CueFace2	Fem	1	0.776994156710316
357.018703877473	3.23600403915862	Jitter1	Exp	Val	CueFace2	Fem	1	0.776994156710316
360.237673123572	0.5	target	Exp	Val	Face	Fem	1	0.776994156710316
360.754560774225	3.21842706759981	Jitter2	Exp	Val	Face	Fem	1	0.776994156710316
363.990316777394	0.5	cue	Exp	Val	CueFace2	Mas	1	0.680095901557252
364.50728952588	4.6202864979341	Jitter1	Exp	Val	CueFace2	Mas	1	0.680095901557252
369.110603275328	0.5	target	Exp	Val	Face	Mas	1	0.680095901557252
369.627474987926	3.21841084493553	Jitter2	Exp	Val	Face	Mas	1	0.680095901557252
372.863237537081	0.5	cue	Exp	Val	CueName2	Fem	1	0.623454898006457
373.380257530518	3.23596334019567	Jitter1	Exp	Val	CueName2	Fem	1	0.623454898006457
376.599200877276	0.5	target	Exp	Val	Word	Fem	1	0.623454898006457
377.116080843511	6.01840589275434	Jitter2	Exp	Val	Word	Fem	1	0.623454898006457
383.153810205649	0.5	cue	Exp	Val	CueFace2	Fem	1	0.667485484273129
383.670840729587	6.02128968469151	Jitter1	Exp	Val	CueFace2	Fem	1	0.667485484273129
389.675099890341	0.5	target	Exp	Val	Face	Fem	1	0.667485484273129
390.191972456763	2.51839664299041	Jitter2	Exp	Val	Face	Fem	1	0.667485484273129
392.727230708762	0.5	cue	Exp	Val	CueName2	Mas	1	0.762881577685221
393.244287132041	3.93644657634923	Jitter1	Exp	Val	CueName2	Mas	1	0.762881577685221
397.163677285112	0.5	target	Exp	Val	Word	Mas	1	0.762881577685221
397.680561805076	3.21837099979712	Jitter2	Exp	Val	Word	Mas	1	0.762881577685221
400.916320085109	0.5	cue	Exp	Val	CueName2	Fem	1	0.646780526997645
401.433349186007	2.53546644285143	Jitter1	Exp	Val	CueName2	Fem	1	0.646780526997645
403.95178652796	0.5	target	Exp	Val	Word	Fem	1	0.646780526997645
404.468686701372	2.51837956650252	Jitter2	Exp	Val	Word	Fem	1	0.646780526997645
407.003934138263	0.5	cue	Exp	Val	CueName2	Mas	1	1.12067014970125
407.52097832339	6.037938976031	Jitter1	Exp	Val	CueName2	Mas	1	1.12067014970125
413.541873114294	0.5	target	Exp	Val	Word	Mas	1	1.12067014970125
414.058761049555	6.01832591786842	Jitter2	Exp	Val	Word	Mas	1	1.12067014970125
420.079839981921	0.5	cue	Exp	Val	CueFace2	Fem	1	0.64223704271626
420.596847737209	3.9364312075104	Jitter1	Exp	Val	CueFace2	Fem	1	0.64223704271626
424.516271189432	0.5	target	Exp	Val	Face	Fem	1	0.64223704271626
425.033152294098	6.01840020059262	Jitter2	Exp	Val	Face	Fem	1	0.64223704271626
431.054230657249	0.5	cue	Exp	Val	CueFace2	Mas	0	1.18079788752402
431.571237558711	2.53544452802453	Jitter1	Exp	Val	CueFace2	Mas	0	1.18079788752402
434.089675185273	0.5	target	Exp	Val	Face	Mas	0	1.18079788752402
434.606561412886	4.61842871832778	Jitter2	Exp	Val	Face	Mas	0	1.18079788752402
439.243268519523	0.5	cue	Exp	Inval	CueFace2	Mas	1	0.659180903477136
439.760298758853	3.23599720856328	Jitter1	Exp	Inval	CueFace2	Mas	1	0.659180903477136
442.979265728086	0.5	target	Exp	Inval	Word	Mas	1	0.659180903477136
443.496155655605	4.61840936497447	Jitter2	Exp	Inval	Word	Mas	1	0.659180903477136
448.132898338258	0.5	cue	Exp	Val	CueFace2	Fem	1	0.572695890798968
448.649927439156	5.32078823361735	Jitter1	Exp	Val	CueFace2	Fem	1	0.572695890798968
453.953686571876	0.5	target	Exp	Val	Face	Fem	1	0.572695890798968
454.470548607796	6.01836576300775	Jitter2	Exp	Val	Face	Fem	1	0.572695890798968
460.508226171255	0.5	cue	Exp	Val	CueName2	Fem	1	0.516906150182876
461.025272633248	5.33752205357268	Jitter1	Exp	Val	CueName2	Fem	1	0.516906150182876
466.345748224828	0.5	target	Exp	Val	Word	Fem	1	0.516906150182876
466.862606276236	3.21842649838345	Jitter2	Exp	Val	Word	Fem	1	0.516906150182876
