onset	duration	section	btype	validity	stim	gender	accuracy	reaction_time
10.0478175945445	0.5	cue	Exp	Val	CueName2	Mas	1	0.846980737545891
10.564844606266	4.63692704083587	Jitter1	Exp	Val	CueName2	Mas	1	0.846980737545891
15.1847446353804	0.5	target	Exp	Val	Word	Mas	1	0.846980737545891
15.7016407281026	5.31837024063316	Jitter2	Exp	Val	Word	Mas	1	0.846980737545891
21.0388211825793	0.5	cue	Exp	Val	CueName2	Fem	1	0.934851007064935
21.555820018255	6.03790716875483	Jitter1	Exp	Val	CueName2	Fem	1	0.934851007064935
27.5767283513342	0.5	target	Exp	Val	Word	Fem	1	0.934851007064935
28.0936329822525	2.51835043201754	Jitter2	Exp	Val	Word	Fem	1	0.934851007064935
30.6288591576267	0.5	cue	Exp	Val	CueFace2	Mas	1	0.938351951816003
31.1459428060443	4.62029662829627	Jitter1	Exp	Val	CueFace2	Mas	1	0.938351951816003
35.749155785923	0.5	target	Exp	Val	Face	Mas	1	0.938351951816003
36.266005203177	3.91840615797264	Jitter2	Exp	Val	Face	Mas	1	0.938351951816003
40.2022354134169	0.5	cue	Exp	Inval	CueName2	Mas	1	0.9092654505057
40.7192527485167	3.2359272750673	Jitter1	Exp	Inval	CueName2	Mas	1	0.9092654505057
43.9381626884842	0.5	target	Exp	Inval	Face	Mas	1	0.9092654505057
44.4550491045848	2.51836181627914	Jitter2	Exp	Inval	Face	Mas	1	0.9092654505057
46.9902858104015	0.5	cue	Exp	Val	CueFace2	Fem	1	0.713166438174085
47.5073131067275	3.23593894393343	Jitter1	Exp	Val	CueFace2	Fem	1	0.713166438174085
50.7262247543349	0.5	target	Exp	Val	Face	Fem	1	0.713166438174085
51.2431345081695	3.9183557826218	Jitter2	Exp	Val	Face	Fem	1	0.713166438174085
55.17933711158	0.5	cue	Exp	Val	CueFace2	Fem	1	0.816615783764064
55.6963439162373	2.53540448135755	Jitter1	Exp	Val	CueFace2	Fem	1	0.816615783764064
58.2147415929376	0.5	target	Exp	Val	Face	Fem	1	0.816615783764064
58.7316963146022	3.91835777486631	Jitter2	Exp	Val	Face	Fem	1	0.816615783764064
62.6678681805079	0.5	cue	Exp	Val	CueName2	Fem	1	0.709916516370868
63.184929629615	5.33738608268322	Jitter1	Exp	Val	CueName2	Fem	1	0.709916516370868
68.5052542631911	0.5	target	Exp	Val	Word	Fem	1	0.709916516370868
69.022217523052	3.9183557826218	Jitter2	Exp	Val	Word	Fem	1	0.709916516370868
72.9583942272693	0.5	cue	Exp	Val	CueName2	Fem	1	0.837349937657564
73.4754494150329	2.5354858788196	Jitter1	Exp	Val	CueName2	Fem	1	0.837349937657564
75.9938801060889	0.5	target	Exp	Val	Word	Fem	1	0.837349937657564
76.5107804679101	3.21847107671965	Jitter2	Exp	Val	Word	Fem	1	0.837349937657564
79.7465012609482	0.5	cue	Exp	Val	CueFace2	Fem	1	0.72922962992925
80.263481881806	2.53544973379394	Jitter1	Exp	Val	CueFace2	Fem	1	0.72922962992925
82.7819509947421	0.5	target	Exp	Val	Face	Fem	1	0.72922962992925
83.2988570486923	4.61848098102746	Jitter2	Exp	Val	Face	Fem	1	0.72922962992925
87.9356083450039	0.5	cue	Exp	Inval	CueName2	Mas	1	0.786710469506943
88.4525949425988	5.32068480312228	Jitter1	Exp	Inval	CueName2	Mas	1	0.786710469506943
93.7562931481261	0.5	target	Exp	Inval	Face	Mas	1	0.786710469506943
94.2731875332101	5.31831986527868	Jitter2	Exp	Inval	Face	Mas	1	0.786710469506943
99.6103699799314	0.5	cue	Exp	Val	CueFace2	Fem	1	0.835300486136475
100.127437405778	6.0212260962544	Jitter1	Exp	Val	CueFace2	Fem	1	0.835300486136475
106.131596076186	0.5	target	Exp	Val	Face	Fem	1	0.835300486136475
106.648501845531	3.2183535342283	Jitter2	Exp	Val	Face	Fem	1	0.835300486136475
109.884216661832	0.5	cue	Exp	Val	CueName2	Mas	1	0.79718342007618
110.401246519617	5.33741539715629	Jitter1	Exp	Val	CueName2	Mas	1	0.79718342007618
115.721632058989	0.5	target	Exp	Val	Word	Mas	1	0.79718342007618
116.238532136202	3.21835979557363	Jitter2	Exp	Val	Word	Mas	1	0.79718342007618
119.474193161874	0.5	cue	Exp	Inval	CueName2	Mas	1	0.812206944228819
119.991310109252	4.62030630491608	Jitter1	Exp	Inval	CueName2	Mas	1	0.812206944228819
124.59449946679	0.5	target	Exp	Inval	Face	Mas	1	0.812206944228819
125.111396413331	3.91840729640171	Jitter2	Exp	Inval	Face	Mas	1	0.812206944228819
129.047601293594	0.5	cue	Exp	Val	CueFace2	Mas	1	0.813746665478902
129.564643389458	6.02128301755693	Jitter1	Exp	Val	CueFace2	Mas	1	0.813746665478902
135.568884311151	0.5	target	Exp	Val	Face	Mas	1	0.813746665478902
136.085780973086	5.31821655311433	Jitter2	Exp	Val	Face	Mas	1	0.813746665478902
141.422907636932	0.5	cue	Exp	Val	CueName2	Mas	1	0.659095753870133
141.93994631752	3.93651154378313	Jitter1	Exp	Val	CueName2	Mas	1	0.659095753870133
145.859419180715	0.5	target	Exp	Val	Word	Mas	1	0.659095753870133
146.376251521577	5.31827717430133	Jitter2	Exp	Val	Word	Mas	1	0.659095753870133
151.713438522003	0.5	cue	Exp	Inval	CueName2	Fem	1	0.697565162796309
152.230465249117	2.53545115682573	Jitter1	Exp	Inval	CueName2	Fem	1	0.697565162796309
154.748889678829	0.5	target	Exp	Inval	Face	Fem	1	0.697565162796309
155.265792032897	3.21827185215807	Jitter2	Exp	Inval	Face	Fem	1	0.697565162796309
158.50150741841	0.5	cue	Exp	Val	CueName2	Mas	1	0.791934137498174
159.018538414623	4.63692675622951	Jitter1	Exp	Val	CueName2	Mas	1	0.791934137498174
163.63843417464	0.5	target	Exp	Val	Word	Mas	1	0.791934137498174
164.15533368264	2.51847082057429	Jitter2	Exp	Val	Word	Mas	1	0.791934137498174
166.690561850261	0.5	cue	Exp	Val	CueName2	Mas	1	0.803764945754665
167.207605084552	3.23595032819503	Jitter1	Exp	Val	CueName2	Mas	1	0.803764945754665
170.426512178456	0.5	target	Exp	Val	Word	Mas	1	0.803764945754665
170.943397740737	6.01839639596983	Jitter2	Exp	Val	Word	Mas	1	0.803764945754665
176.964414508899	0.5	cue	Exp	Inval	CueFace2	Mas	1	0.548395203468317
177.481433551637	5.3374025898629	Jitter1	Exp	Inval	CueFace2	Mas	1	0.548395203468317
182.801817098762	0.5	target	Exp	Inval	Word	Mas	1	0.548395203468317
183.318719452827	2.51835897021374	Jitter2	Exp	Inval	Word	Mas	1	0.548395203468317
185.853972381214	0.5	cue	Exp	Inval	CueFace2	Fem	1	0.816261448651858
186.370980608905	3.23589767598969	Jitter1	Exp	Inval	CueFace2	Fem	1	0.816261448651858
189.589870057203	0.5	target	Exp	Inval	Word	Fem	1	0.816261448651858
190.106795749003	6.01835825869784	Jitter2	Exp	Inval	Word	Fem	1	0.816261448651858
196.127796863806	0.5	cue	Exp	Val	CueFace2	Mas	1	0.722525154234972
196.644817329578	3.91975248909876	Jitter1	Exp	Val	CueFace2	Mas	1	0.722525154234972
200.547549352905	0.5	target	Exp	Val	Face	Mas	1	0.722525154234972
201.064451137758	6.01827458438129	Jitter2	Exp	Val	Face	Mas	1	0.722525154234972
207.085449691102	0.5	cue	Exp	Val	CueFace2	Fem	1	0.800423665259586
207.602492640786	3.23608067797795	Jitter1	Exp	Val	CueFace2	Fem	1	0.800423665259586
210.821530369079	0.5	target	Exp	Val	Face	Fem	1	0.800423665259586
211.338306927066	6.01835028971618	Jitter2	Exp	Val	Face	Fem	1	0.800423665259586
217.359288688627	0.5	cue	Exp	Inval	CueFace2	Fem	1	0.757638198519999
217.876315131134	4.63689317265926	Jitter1	Exp	Inval	CueFace2	Fem	1	0.757638198519999
222.496181861286	0.5	target	Exp	Inval	Word	Fem	1	0.757638198519999
223.013112676004	3.21835182659015	Jitter2	Exp	Inval	Word	Fem	1	0.757638198519999
226.248781670658	0.5	cue	Exp	Val	CueName2	Mas	1	0.94097317782871
226.765848811896	3.23599728826775	Jitter1	Exp	Val	CueName2	Mas	1	0.94097317782871
229.984778958926	0.5	target	Exp	Val	Word	Mas	1	0.94097317782871
230.501677328501	4.61828574095853	Jitter2	Exp	Val	Word	Mas	1	0.94097317782871
235.138384510803	0.5	cue	Exp	Val	CueName2	Fem	1	0.749962930001857
235.655398146017	5.33735534518019	Jitter1	Exp	Val	CueName2	Fem	1	0.749962930001857
240.975739855983	0.5	target	Exp	Val	Word	Fem	1	0.749962930001857
241.492713361678	3.91832732196963	Jitter2	Exp	Val	Word	Fem	1	0.749962930001857
245.428891204321	0.5	cue	Exp	Val	CueFace2	Fem	1	0.9569803020986
245.945913377729	3.91976415796489	Jitter1	Exp	Val	CueFace2	Fem	1	0.9569803020986
249.848655362286	0.5	target	Exp	Val	Face	Fem	1	0.9569803020986
250.36555458568	5.31836027940335	Jitter2	Exp	Val	Face	Fem	1	0.9569803020986
255.702687226261	0.5	cue	Exp	Inval	CueFace2	Mas	1	0.714320517596207
256.219766036367	3.93648621380271	Jitter1	Exp	Inval	CueFace2	Mas	1	0.714320517596207
260.139173440064	0.5	target	Exp	Inval	Word	Mas	1	0.714320517596207
260.656073232673	4.61828118725316	Jitter2	Exp	Inval	Word	Mas	1	0.714320517596207
265.292767892286	0.5	cue	Exp	Inval	CueName2	Fem	1	0.740234225469976
265.809843856327	3.93645348405335	Jitter1	Exp	Inval	CueName2	Fem	1	0.740234225469976
269.729221376339	0.5	target	Exp	Inval	Face	Fem	1	0.740234225469976
270.246144791288	4.61821942763891	Jitter2	Exp	Inval	Face	Fem	1	0.740234225469976
274.882770860733	0.5	cue	Exp	Val	CueFace2	Mas	1	0.698296032329381
275.399848817018	4.62027755965755	Jitter1	Exp	Val	CueFace2	Mas	1	0.698296032329381
280.003048420391	0.5	target	Exp	Val	Face	Mas	1	0.698296032329381
280.519948782212	3.21845343111636	Jitter2	Exp	Val	Face	Mas	1	0.698296032329381
283.755635991682	0.5	cue	Exp	Inval	CueName2	Fem	1	0.792337709539424
284.27268520271	6.02126736419814	Jitter1	Exp	Inval	CueName2	Fem	1	0.792337709539424
290.27690335588	0.5	target	Exp	Inval	Face	Fem	1	0.792337709539424
290.793790056588	6.01931311355838	Jitter2	Exp	Inval	Face	Fem	1	0.792337709539424
296.831448052339	0.5	cue	Exp	Val	CueName2	Mas	1	0.939743393073513
297.348524585592	6.03791940683368	Jitter1	Exp	Val	CueName2	Mas	1	0.939743393073513
303.369367459172	0.5	target	Exp	Val	Word	Mas	1	0.939743393073513
303.886270097844	3.91823055575514	Jitter2	Exp	Val	Word	Mas	1	0.939743393073513
307.822489493039	0.5	cue	Exp	Val	CueFace2	Fem	1	0.685375465722245
308.339504835891	6.02121641963276	Jitter1	Exp	Val	CueFace2	Fem	1	0.685375465722245
314.343705912672	0.5	target	Exp	Val	Face	Fem	1	0.685375465722245
314.860604282247	2.51844805205292	Jitter2	Exp	Val	Face	Fem	1	0.685375465722245
317.395799435511	0.5	cue	Exp	Val	CueName2	Fem	1	0.724701824869044
317.91286572293	3.93645689933146	Jitter1	Exp	Val	CueName2	Fem	1	0.724701824869044
321.832256334843	0.5	target	Exp	Val	Word	Fem	1	0.724701824869044
322.349175480693	5.31834974896265	Jitter2	Exp	Val	Word	Fem	1	0.724701824869044
327.686317228683	0.5	cue	Exp	Val	CueName2	Fem	1	0.837589007129282
328.203378962398	4.63696517810968	Jitter1	Exp	Val	CueName2	Fem	1	0.837589007129282
332.823282406793	0.5	target	Exp	Val	Word	Fem	1	0.837589007129282
333.340177076481	6.018364235435	Jitter2	Exp	Val	Word	Fem	1	0.837589007129282
339.361180468137	0.5	cue	Exp	Val	CueFace2	Mas	1	0.758926043003157
339.87820890289	5.32072521724876	Jitter1	Exp	Val	CueFace2	Mas	1	0.758926043003157
345.181905685386	0.5	target	Exp	Val	Face	Mas	1	0.758926043003157
345.698809177877	5.31846216853592	Jitter2	Exp	Val	Face	Mas	1	0.758926043003157
351.035992478419	0.5	cue	Exp	Val	CueName2	Fem	1	0.676218251075625
351.553030589792	3.93644124597267	Jitter1	Exp	Val	CueName2	Fem	1	0.676218251075625
355.472433724392	0.5	target	Exp	Val	Word	Fem	1	0.676218251075625
355.989331240147	3.21823086882068	Jitter2	Exp	Val	Word	Fem	1	0.676218251075625
359.225043494991	0.5	cue	Exp	Val	CueName2	Mas	1	0.768080696192555
359.742013016194	2.53547449455982	Jitter1	Exp	Val	CueName2	Mas	1	0.768080696192555
362.260517989551	0.5	target	Exp	Val	Word	Mas	1	0.768080696192555
362.777404121045	6.01827657662761	Jitter2	Exp	Val	Word	Mas	1	0.768080696192555
368.798416620109	0.5	cue	Exp	Val	CueFace2	Fem	1	0.761417773050198
369.315400087033	5.3207283479187	Jitter1	Exp	Val	CueFace2	Fem	1	0.761417773050198
374.619144968028	0.5	target	Exp	Val	Face	Fem	1	0.761417773050198
375.136052445012	2.51830887946744	Jitter2	Exp	Val	Face	Fem	1	0.761417773050198
377.671264674667	0.5	cue	Exp	Val	CueFace2	Mas	1	0.768354487661782
378.188297093911	5.32074058599937	Jitter1	Exp	Val	CueFace2	Mas	1	0.768354487661782
383.492005260667	0.5	target	Exp	Val	Face	Mas	1	0.768354487661782
384.00890049957	2.5183649469509	Jitter2	Exp	Val	Face	Mas	1	0.768354487661782
386.544137205387	0.5	cue	Exp	Val	CueFace2	Fem	1	0.707959561968892
387.06119239315	4.62024198384279	Jitter1	Exp	Val	CueFace2	Fem	1	0.707959561968892
391.664379189229	0.5	target	Exp	Val	Face	Fem	1	0.707959561968892
392.181278697231	4.61843829004829	Jitter2	Exp	Val	Face	Fem	1	0.707959561968892
396.818009217266	0.5	cue	Exp	Inval	CueFace2	Mas	1	0.966921038483633
397.334971623308	2.53537317463997	Jitter1	Exp	Inval	CueFace2	Mas	1	0.966921038483633
399.853382391906	0.5	target	Exp	Inval	Word	Mas	1	0.966921038483633
400.37034138267	3.9183677360943	Jitter2	Exp	Inval	Word	Mas	1	0.966921038483633
404.306534309457	0.5	cue	Exp	Val	CueName2	Mas	1	0.607786891194337
404.823609988891	6.037903184264	Jitter1	Exp	Val	CueName2	Mas	1	0.607786891194337
410.844437493721	0.5	target	Exp	Val	Word	Mas	1	0.607786891194337
411.361347532162	2.51835043201936	Jitter2	Exp	Val	Word	Mas	1	0.607786891194337
413.896533578019	0.5	cue	Exp	Inval	CueFace2	Fem	1	0.665653657208168
414.413573966245	6.03790375347489	Jitter1	Exp	Inval	CueFace2	Fem	1	0.665653657208168
420.434437331494	0.5	target	Exp	Inval	Word	Fem	1	0.665653657208168
420.951373553737	5.31848038335374	Jitter2	Exp	Inval	Word	Fem	1	0.665653657208168
426.288558561917	0.5	cue	Exp	Val	CueFace2	Mas	1	0.739537508719877
426.805604073061	3.23593467483624	Jitter1	Exp	Val	CueFace2	Mas	1	0.739537508719877
430.024493236753	0.5	target	Exp	Val	Face	Mas	1	0.739537508719877
430.541404982834	6.01835398959884	Jitter2	Exp	Val	Face	Mas	1	0.739537508719877
436.562404389999	0.5	cue	Exp	Val	CueFace2	Mas	1	0.646140180662769
437.079427132621	2.53544802615397	Jitter1	Exp	Val	CueFace2	Mas	1	0.646140180662769
439.597852416153	0.5	target	Exp	Val	Face	Mas	1	0.646140180662769
440.114777254134	3.21833702705044	Jitter2	Exp	Val	Face	Mas	1	0.646140180662769
443.350411811398	0.5	cue	Exp	Val	CueName2	Fem	1	0.861488839298545
443.867478383423	3.23601493387287	Jitter1	Exp	Val	CueName2	Fem	1	0.861488839298545
447.086426745271	0.5	target	Exp	Val	Word	Fem	1	0.861488839298545
447.603321130355	4.61829086387479	Jitter2	Exp	Val	Word	Fem	1	0.861488839298545
452.240017782215	0.5	cue	Exp	Val	CueName2	Fem	1	0.752306949265403
452.75705418595	2.53544973379394	Jitter1	Exp	Val	CueName2	Fem	1	0.752306949265403
455.275467516009	0.5	target	Exp	Val	Word	Fem	1	0.752306949265403
455.792363608731	4.61962566843431	Jitter2	Exp	Val	Word	Fem	1	0.752306949265403
460.429020415679	0.5	cue	Exp	Val	CueFace2	Mas	1	0.594872301324358
460.946099225785	3.91980969500764	Jitter1	Exp	Val	CueFace2	Mas	1	0.594872301324358
464.848830110686	0.5	target	Exp	Val	Face	Mas	1	0.594872301324358
465.36572933408	4.61836884606055	Jitter2	Exp	Val	Face	Mas	1	0.594872301324358
