onset	duration	section	btype	validity	stim	gender	accuracy	reaction_time
10.0518066439327	0.5	cue	Exp	Inval	CueFace1	Mas	1	0.601890004729285
10.5688576126995	6.03786441532793	Jitter1	Exp	Inval	CueFace1	Mas	1	0.601890004729285
16.5896710592606	0.5	target	Exp	Inval	Word	Mas	1	0.601890004729285
17.106529350458	4.61838940905182	Jitter2	Exp	Inval	Word	Mas	1	0.601890004729285
21.7432763497254	0.5	cue	Exp	Val	CueName2	Mas	1	0.600197743537137
22.2602254299109	3.23589085057574	Jitter1	Exp	Val	CueName2	Mas	1	0.600197743537137
25.4791672003012	0.5	target	Exp	Val	Word	Mas	1	0.600197743537137
25.9960229300541	6.01833510642246	Jitter2	Exp	Val	Word	Mas	1	0.600197743537137
32.0171189893554	0.5	cue	Exp	Val	CueName2	Mas	1	0.641853666365932
32.5340467241676	3.9362840608137	Jitter1	Exp	Val	CueName2	Mas	1	0.641853666365932
36.4534030501691	0.5	target	Exp	Val	Word	Mas	1	0.641853666365932
36.9703125702617	2.51836840520446	Jitter2	Exp	Val	Word	Mas	1	0.641853666365932
39.5055981798942	0.5	cue	Exp	Val	CueFace1	Fem	1	0.698200898099458
40.0225717361081	2.53538664439839	Jitter1	Exp	Val	CueFace1	Fem	1	0.698200898099458
42.5409848242925	0.5	target	Exp	Val	Face	Fem	1	0.698200898099458
43.057866168494	3.91837045436114	Jitter2	Exp	Val	Face	Fem	1	0.698200898099458
46.9940719629376	0.5	cue	Exp	Val	CueFace1	Fem	1	0.576178221914233
47.5111442770776	5.32077883859529	Jitter1	Exp	Val	CueFace1	Fem	1	0.576178221914233
52.8148508015329	0.5	target	Exp	Val	Face	Fem	1	0.576178221914233
53.331629687942	3.91838639223897	Jitter2	Exp	Val	Face	Fem	1	0.576178221914233
57.2678998031097	0.5	cue	Exp	Val	CueFace1	Mas	1	1.07163991095149
57.7850276152203	2.53539489794457	Jitter1	Exp	Val	CueFace1	Mas	1	1.07163991095149
60.3032947010543	0.5	target	Exp	Val	Face	Mas	1	1.07163991095149
60.8201754760448	3.21838252161069	Jitter2	Exp	Val	Face	Mas	1	1.07163991095149
64.0558952790288	0.5	cue	Exp	Val	CueName2	Fem	0	NaN
64.5729408403022	3.93640928700188	Jitter1	Exp	Val	CueName2	Fem	0	NaN
68.4923045660307	0.5	target	Exp	Val	Word	Fem	0	NaN
69.0092112400744	6.01820048826812	Jitter2	Exp	Val	Word	Fem	0	NaN
75.0468545173353	0.5	cue	Exp	Inval	CueName2	Mas	1	0.527657627044391
75.5638733257401	4.62022710338715	Jitter1	Exp	Inval	CueName2	Mas	1	0.527657627044391
80.1670816207225	0.5	target	Exp	Inval	Face	Mas	1	0.527657627044391
80.6839174281267	3.21839874409488	Jitter2	Exp	Inval	Face	Mas	1	0.527657627044391
83.9196597149057	0.5	cue	Exp	Inval	CueName2	Fem	1	0.779401544039501
84.4366808001505	2.53547885641092	Jitter1	Exp	Inval	CueName2	Fem	1	0.779401544039501
86.9551385713166	0.5	target	Exp	Inval	Face	Fem	1	0.779401544039501
87.4720224769626	2.51832144538275	Jitter2	Exp	Inval	Face	Fem	1	0.779401544039501
90.007207051829	0.5	cue	Exp	Val	CueName2	Fem	1	0.866791494408972
90.5242304139119	3.93647332312139	Jitter1	Exp	Val	CueName2	Fem	1	0.866791494408972
94.4436803749504	0.5	target	Exp	Val	Word	Fem	1	0.866791494408972
94.9604794683128	2.51828387752539	Jitter2	Exp	Val	Word	Fem	1	0.866791494408972
97.4957371866567	0.5	cue	Exp	Inval	CueFace1	Mas	1	0.742792805869612
98.0127599795305	3.23590451161544	Jitter1	Exp	Inval	CueFace1	Mas	1	0.742792805869612
101.231641698272	0.5	target	Exp	Inval	Word	Mas	1	0.742792805869612
101.748536134302	5.31833664328769	Jitter2	Exp	Inval	Word	Mas	1	0.742792805869612
107.085713342452	0.5	cue	Exp	Val	CueFace1	Fem	1	0.599249155149664
107.602744673475	6.02120876287336	Jitter1	Exp	Val	CueFace1	Fem	1	0.599249155149664
113.606922105326	0.5	target	Exp	Val	Face	Fem	1	0.599249155149664
114.123778404288	4.61839111668269	Jitter2	Exp	Val	Face	Fem	1	0.599249155149664
118.760472467029	0.5	cue	Exp	Val	CueName2	Fem	1	0.794130990008853
119.277450292318	2.53544214237081	Jitter1	Exp	Val	CueName2	Fem	1	0.794130990008853
121.7959146094	0.5	target	Exp	Val	Word	Fem	1	0.794130990008853
122.312784854006	3.91838838447438	Jitter2	Exp	Val	Word	Fem	1	0.794130990008853
126.24898837161	0.5	cue	Exp	Val	CueName2	Mas	0	NaN
126.766014010534	6.03786612295698	Jitter1	Exp	Val	CueName2	Mas	0	NaN
132.786854494567	0.5	target	Exp	Val	Word	Mas	0	NaN
133.303731569693	4.61813497220282	Jitter2	Exp	Val	Word	Mas	0	NaN
137.940499345124	0.5	cue	Exp	Inval	CueName2	Mas	1	0.793447938065583
138.457484570141	3.23584872903848	Jitter1	Exp	Inval	CueName2	Mas	1	0.793447938065583
141.676348074163	0.5	target	Exp	Inval	Face	Mas	1	0.793447938065583
142.193247348478	6.01836299771094	Jitter2	Exp	Inval	Face	Mas	1	0.793447938065583
148.21429587875	0.5	cue	Exp	Inval	CueName2	Mas	1	0.659659692137211
148.731184907285	3.91966626081921	Jitter1	Exp	Inval	CueName2	Mas	1	0.659659692137211
152.633962139569	0.5	target	Exp	Inval	Face	Mas	1	0.659659692137211
153.150823276816	3.91841599115833	Jitter2	Exp	Inval	Face	Mas	1	0.659659692137211
157.087091684354	0.5	cue	Exp	Inval	CueName2	Fem	1	0.585702812068121
157.604074347928	5.32065788148066	Jitter1	Exp	Inval	CueName2	Fem	1	0.585702812068121
162.907749565835	0.5	target	Exp	Inval	Face	Fem	1	0.585702812068121
163.424588788499	5.31841690189322	Jitter2	Exp	Inval	Face	Fem	1	0.585702812068121
168.761787057418	0.5	cue	Exp	Val	CueFace1	Fem	1	0.691290689261223
169.278796189254	4.62023507232698	Jitter1	Exp	Val	CueFace1	Fem	1	0.691290689261223
173.882022129745	0.5	target	Exp	Val	Face	Fem	1	0.691290689261223
174.398880990151	3.21828347908013	Jitter2	Exp	Val	Face	Fem	1	0.691290689261223
177.634601077742	0.5	cue	Exp	Val	CueFace1	Mas	1	1.18220012169695
178.151620739962	3.93641440989268	Jitter1	Exp	Val	CueFace1	Mas	1	1.18220012169695
182.071015487634	0.5	target	Exp	Val	Face	Mas	1	1.18220012169695
182.587869794361	2.51841422660618	Jitter2	Exp	Val	Face	Mas	1	1.18220012169695
185.123050384758	0.5	cue	Exp	Val	CueName2	Fem	1	0.880094500236737
185.64015372084	6.03790824449243	Jitter1	Exp	Val	CueName2	Fem	1	0.880094500236737
191.660958629251	0.5	target	Exp	Val	Word	Fem	1	0.880094500236737
192.177867864739	3.21836686833922	Jitter2	Exp	Val	Word	Fem	1	0.880094500236737
195.413667072513	0.5	cue	Exp	Val	CueFace1	Fem	1	0.991424567442664
195.930557808679	3.23584332154496	Jitter1	Exp	Val	CueFace1	Fem	1	0.991424567442664
199.149510394058	0.5	target	Exp	Val	Face	Fem	1	0.991424567442664
199.666389746024	4.61838001708747	Jitter2	Exp	Val	Face	Fem	1	0.991424567442664
204.303078401272	0.5	cue	Exp	Val	CueName2	Fem	1	0.629773608125106
204.820127377803	3.2359304106667	Jitter1	Exp	Val	CueName2	Fem	1	0.629773608125106
208.039008811938	0.5	target	Exp	Val	Word	Fem	1	0.629773608125106
208.55588332562	5.31838445692665	Jitter2	Exp	Val	Word	Fem	1	0.629773608125106
213.89307988691	0.5	cue	Exp	Inval	CueFace1	Fem	1	1.11868283678268
214.410084465066	4.63687677913731	Jitter1	Exp	Inval	CueFace1	Fem	1	1.11868283678268
219.029956666047	0.5	target	Exp	Inval	Word	Fem	1	1.11868283678268
219.546833171962	6.0183732434889	Jitter2	Exp	Inval	Word	Fem	1	1.11868283678268
225.567841288326	0.5	cue	Exp	Inval	CueFace1	Mas	1	0.631258107685426
226.084953731768	5.3373838313637	Jitter1	Exp	Inval	CueFace1	Mas	1	0.631258107685426
231.40522511969	0.5	target	Exp	Inval	Word	Mas	1	0.631258107685426
231.922075157343	2.51841422660618	Jitter2	Exp	Inval	Word	Mas	1	0.631258107685426
234.457408865217	0.5	cue	Exp	Val	CueFace1	Fem	1	0.865787408052711
234.974364775922	6.02110972034097	Jitter1	Exp	Val	CueFace1	Fem	1	0.865787408052711
240.978518585558	0.5	target	Exp	Val	Face	Fem	1	0.865787408052711
241.495357808222	5.31838559534663	Jitter2	Exp	Val	Face	Fem	1	0.865787408052711
246.832495456281	0.5	cue	Exp	Inval	CueName2	Fem	1	0.634455929202886
247.34960021539	6.02126483005486	Jitter1	Exp	Inval	CueName2	Fem	1	0.634455929202886
253.353760286336	0.5	target	Exp	Inval	Face	Fem	1	0.634455929202886
253.870619715954	4.61843010756274	Jitter2	Exp	Inval	Face	Fem	1	0.634455929202886
258.50735817707	0.5	cue	Exp	Val	CueFace1	Mas	1	1.86931423292481
259.024379262315	2.53538806742472	Jitter1	Exp	Val	CueFace1	Mas	1	1.86931423292481
261.542746244495	0.5	target	Exp	Val	Face	Mas	1	1.86931423292481
262.059607666348	3.2182905942027	Jitter2	Exp	Val	Face	Mas	1	1.86931423292481
265.29534966852	0.5	cue	Exp	Inval	CueFace1	Fem	1	0.769146088303387
265.812377584285	2.53546206471765	Jitter1	Exp	Inval	CueFace1	Fem	1	0.769146088303387
268.330811733238	0.5	target	Exp	Inval	Word	Fem	1	0.769146088303387
268.847666609176	3.91840460695857	Jitter2	Exp	Inval	Word	Fem	1	0.769146088303387
272.783835974184	0.5	cue	Exp	Val	CueFace1	Fem	1	0.624253409994708
273.300896334915	3.9197823796494	Jitter1	Exp	Val	CueFace1	Fem	1	0.624253409994708
277.203618353833	0.5	target	Exp	Val	Face	Fem	1	0.624253409994708
277.72048119871	2.51840568845728	Jitter2	Exp	Val	Face	Fem	1	0.624253409994708
280.255718140892	0.5	cue	Exp	Val	CueFace1	Fem	0	NaN
280.772738656926	3.23591959567784	Jitter1	Exp	Val	CueFace1	Fem	0	NaN
283.99163773657	0.5	target	Exp	Val	Face	Fem	0	NaN
284.508497735398	6.01816035896627	Jitter2	Exp	Val	Face	Fem	0	NaN
290.529512682282	0.5	cue	Exp	Val	CueName2	Mas	1	0.534710707579507
291.046638502157	2.5354486882843	Jitter1	Exp	Val	CueName2	Mas	1	0.534710707579507
293.564961370566	0.5	target	Exp	Val	Word	Mas	1	0.534710707579507
294.081820230975	3.91836618528578	Jitter2	Exp	Val	Word	Mas	1	0.534710707579507
298.018049078421	0.5	cue	Exp	Val	CueName2	Mas	1	0.694042819388415
298.535061625516	2.53548056404179	Jitter1	Exp	Val	CueName2	Mas	1	0.694042819388415
301.053529642462	0.5	target	Exp	Val	Word	Mas	1	0.694042819388415
301.570320766885	5.31839868717361	Jitter2	Exp	Val	Word	Mas	1	0.694042819388415
306.907586202578	0.5	cue	Exp	Val	CueName2	Mas	0	NaN
307.424545243937	5.33737443939935	Jitter1	Exp	Val	CueName2	Mas	0	NaN
312.744960641978	0.5	target	Exp	Val	Word	Mas	0	NaN
313.261757743105	3.21816081433462	Jitter2	Exp	Val	Word	Mas	0	NaN
316.49740838708	0.5	cue	Exp	Val	CueFace1	Mas	1	0.789955265789104
317.014530222486	3.91983759301729	Jitter1	Exp	Val	CueFace1	Mas	1	0.789955265789104
320.917245980098	0.5	target	Exp	Val	Face	Mas	1	0.789955265789104
321.434106832739	2.51829782316963	Jitter2	Exp	Val	Face	Mas	1	0.789955265789104
323.96934434413	0.5	cue	Exp	Val	CueFace1	Fem	1	0.597012729243943
324.486371690684	5.32071992536476	Jitter1	Exp	Val	CueFace1	Fem	1	0.597012729243943
329.790064269495	0.5	target	Exp	Val	Face	Fem	1	0.597012729243943
330.306924552928	5.31827403019452	Jitter2	Exp	Val	Face	Fem	1	0.597012729243943
335.644099768844	0.5	cue	Exp	Val	CueName2	Fem	1	0.833459982548447
336.161147606956	5.33734797113539	Jitter1	Exp	Val	CueName2	Fem	1	0.833459982548447
341.48144773998	0.5	target	Exp	Val	Word	Fem	1	0.833459982548447
341.998337906934	2.51838491229319	Jitter2	Exp	Val	Word	Fem	1	0.833459982548447
344.533594202256	0.5	cue	Exp	Val	CueName2	Mas	1	0.607862155564362
345.050562350974	5.33734000219556	Jitter1	Exp	Val	CueName2	Mas	1	0.607862155564362
350.370934204451	0.5	target	Exp	Val	Word	Mas	1	0.607862155564362
350.88785311651	4.6182744286416	Jitter2	Exp	Val	Word	Mas	1	0.607862155564362
355.5245500253	0.5	cue	Exp	Val	CueName2	Fem	1	0.621205575296699
356.041587617634	4.63685031087516	Jitter1	Exp	Val	CueName2	Fem	1	0.621205575296699
360.661400336176	0.5	target	Exp	Val	Word	Fem	1	0.621205575296699
361.178320102048	3.21817618300338	Jitter2	Exp	Val	Word	Fem	1	0.621205575296699
364.414038766614	0.5	cue	Exp	Val	CueName2	Mas	0	NaN
364.931063551721	4.63690182437313	Jitter1	Exp	Val	CueName2	Mas	0	NaN
369.550940590987	0.5	target	Exp	Val	Word	Mas	0	NaN
370.06780087442	5.31817071858859	Jitter2	Exp	Val	Word	Mas	0	NaN
375.404930268935	0.5	cue	Exp	Val	CueName2	Fem	1	0.603558359105591
375.922039866327	6.03792560539659	Jitter1	Exp	Val	CueName2	Fem	1	0.603558359105591
381.942855874331	0.5	target	Exp	Val	Word	Fem	1	0.603558359105591
382.459711034875	4.61835724868979	Jitter2	Exp	Val	Word	Fem	1	0.603558359105591
387.09642302773	0.5	cue	Exp	Val	CueName2	Mas	1	0.784839206726247
387.61344952047	4.63689527846145	Jitter1	Exp	Val	CueName2	Mas	1	0.784839206726247
392.233318306191	0.5	target	Exp	Val	Word	Mas	1	0.784839206726247
392.750176597388	3.91838895368346	Jitter2	Exp	Val	Word	Mas	1	0.784839206726247
396.686403737205	0.5	cue	Exp	Inval	CueFace1	Fem	1	0.751220813048349
397.203431652968	3.93651231400327	Jitter1	Exp	Inval	CueFace1	Fem	1	0.751220813048349
401.122916051208	0.5	target	Exp	Inval	Word	Fem	1	0.751220813048349
401.639671315404	3.21838309082159	Jitter2	Exp	Inval	Word	Fem	1	0.751220813048349
404.875413602182	0.5	cue	Exp	Val	CueFace1	Mas	1	0.790269469684063
405.392444933206	4.62023734916693	Jitter1	Exp	Val	CueFace1	Mas	1	0.790269469684063
409.995650951349	0.5	target	Exp	Val	Face	Mas	1	0.790269469684063
410.51251635767	6.01837210507074	Jitter2	Exp	Val	Face	Mas	1	0.790269469684063
416.533507113132	0.5	cue	Exp	Val	CueFace1	Mas	0	NaN
417.050456477922	4.62021742681827	Jitter1	Exp	Val	CueFace1	Mas	0	NaN
421.65372453995	0.5	target	Exp	Val	Face	Mas	0	NaN
422.170581977332	5.31814225809103	Jitter2	Exp	Val	Face	Mas	0	NaN
427.507762885349	0.5	cue	Exp	Val	CueFace1	Mas	1	0.785082828588202
428.024762909825	5.32072191759835	Jitter1	Exp	Val	CueFace1	Mas	1	0.785082828588202
433.328484802947	0.5	target	Exp	Val	Face	Mas	1	0.785082828588202
433.845340248095	3.9183983456478	Jitter2	Exp	Val	Face	Mas	1	0.785082828588202
437.781552303848	0.5	cue	Exp	Val	CueFace1	Mas	1	1.36409656988508
438.298568835413	3.23591788804879	Jitter1	Exp	Val	CueFace1	Mas	1	1.36409656988508
441.517470191897	0.5	target	Exp	Val	Face	Mas	1	1.36409656988508
442.034329906121	4.61830061229921	Jitter2	Exp	Val	Face	Mas	1	1.36409656988508
446.671105365886	0.5	cue	Exp	Val	CueFace1	Mas	0	NaN
447.188069530133	6.02114330372751	Jitter1	Exp	Val	CueFace1	Mas	0	NaN
453.192248669613	0.5	target	Exp	Val	Face	Mas	0	NaN
453.709084761624	6.01816519725071	Jitter2	Exp	Val	Face	Mas	0	NaN
459.730195051176	0.5	cue	Exp	Val	CueName2	Fem	1	0.7111051723532
460.247119086122	3.23584445996494	Jitter1	Exp	Val	CueName2	Fem	1	0.7111051723532
463.46603951114	0.5	target	Exp	Val	Word	Fem	1	0.7111051723532
463.982892110238	6.01838718913314	Jitter2	Exp	Val	Word	Fem	1	0.7111051723532
